Accel_x,Accel_y,Accel_z,Gyr_x,Gyr_y,Gyr_z
-0.02,-0.12,1.03,1.4,-2.45,-0.91
-0.02,-0.12,1.03,1.26,-2.45,-1.19
-0.02,-0.12,1.03,1.26,-2.38,-1.05
-0.02,-0.12,1.03,1.12,-2.38,-0.91
-0.02,-0.12,1.03,1.12,-2.38,-1.19
-0.02,-0.12,1.02,0.91,-2.38,-1.19
-0.02,-0.12,1.03,1.05,-2.45,-1.12
-0.02,-0.12,1.03,0.98,-2.52,-1.12
-0.02,-0.11,1.03,0.91,-2.52,-1.26
-0.02,-0.11,1.03,0.91,-2.59,-1.19
-0.02,-0.11,1.03,0.84,-2.52,-1.12
-0.02,-0.12,1.03,0.84,-2.45,-1.19
-0.02,-0.12,1.03,0.84,-2.38,-1.12
-0.01,-0.12,1.03,0.84,-2.38,-0.91
-0.02,-0.12,1.03,0.91,-2.38,-1.12
-0.02,-0.12,1.02,1.12,-2.31,-1.12
-0.02,-0.11,1.03,1.19,-2.52,-1.12
-0.02,-0.12,1.03,1.26,-2.52,-1.12
-0.02,-0.12,1.03,1.19,-2.52,-1.12
-0.02,-0.12,1.03,1.05,-2.59,-1.19
-0.01,-0.11,1.03,1.05,-2.52,-1.05
-0.02,-0.12,1.03,1.12,-2.52,-1.12
-0.02,-0.11,1.03,0.91,-2.45,-1.19
-0.01,-0.11,1.03,0.77,-2.38,-1.19
-0.02,-0.12,1.03,1.05,-2.38,-1.05
-0.01,-0.12,1.03,0.98,-2.31,-1.05
-0.02,-0.12,1.03,0.84,-2.38,-1.05
-0.01,-0.12,1.03,0.77,-2.38,-0.98
-0.01,-0.12,1.03,0.7,-2.31,-1.12
-0.02,-0.11,1.02,0.63,-2.45,-1.33
-0.02,-0.12,1.02,0.77,-2.45,-1.4
-0.02,-0.12,1.03,0.98,-2.52,-1.05
-0.02,-0.12,1.03,0.98,-2.52,-1.19
-0.02,-0.11,1.03,1.19,-2.45,-1.26
-0.02,-0.12,1.03,1.19,-2.45,-1.33
-0.02,-0.12,1.03,1.26,-2.45,-1.19
-0.02,-0.12,1.03,1.33,-2.38,-1.12
-0.02,-0.12,1.03,1.19,-2.45,-1.05
-0.02,-0.12,1.03,1.12,-2.38,-1.26
-0.02,-0.12,1.03,0.91,-2.45,-1.12
-0.02,-0.11,1.03,0.84,-2.52,-1.05
-0.02,-0.11,1.03,0.91,-2.52,-0.98
-0.02,-0.12,1.03,0.63,-2.45,-1.26
-0.02,-0.12,1.03,0.7,-2.59,-1.05
-0.02,-0.12,1.03,0.63,-2.45,-1.12
-0.02,-0.12,1.03,0.63,-2.31,-0.98
-0.02,-0.12,1.02,0.77,-2.45,-0.91
-0.02,-0.12,1.03,0.84,-2.31,-1.12
-0.02,-0.12,1.02,0.91,-2.52,-0.98
-0.02,-0.12,1.03,0.91,-2.52,-1.05
-0.02,-0.12,1.03,1.12,-2.52,-1.05
-0.02,-0.12,1.03,1.05,-2.59,-0.98
-0.01,-0.12,1.03,1.19,-2.52,-1.12
-0.01,-0.12,1.03,1.12,-2.59,-1.05
-0.02,-0.12,1.03,1.19,-2.52,-1.12
-0.02,-0.12,1.03,1.33,-2.38,-0.98
-0.02,-0.11,1.03,1.4,-2.52,-0.98
-0.02,-0.12,1.03,1.26,-2.45,-1.19
-0.02,-0.12,1.03,1.12,-2.59,-1.19
-0.02,-0.12,1.03,1.05,-2.52,-1.05
-0.01,-0.12,1.03,0.77,-2.45,-1.05
-0.02,-0.12,1.03,0.7,-2.38,-1.19
-0.02,-0.12,1.03,0.63,-2.59,-1.19
-0.02,-0.12,1.03,0.77,-2.38,-0.98
-0.02,-0.12,1.02,0.7,-2.45,-1.12
-0.02,-0.12,1.02,0.91,-2.45,-1.12
-0.02,-0.12,1.02,0.98,-2.38,-1.12
-0.02,-0.12,1.03,1.05,-2.59,-1.19
-0.02,-0.12,1.03,1.05,-2.45,-1.33
-0.02,-0.12,1.03,1.12,-2.45,-1.19
-0.02,-0.12,1.03,1.12,-2.59,-1.12
-0.01,-0.12,1.03,1.12,-2.59,-1.26
-0.02,-0.12,1.03,1.19,-2.52,-0.98
-0.02,-0.12,1.03,1.19,-2.52,-1.05
-0.02,-0.12,1.03,1.33,-2.45,-0.98
-0.02,-0.12,1.03,1.05,-2.52,-1.12
-0.02,-0.12,1.03,1.12,-2.52,-0.84
-0.02,-0.11,1.03,1.12,-2.52,-1.05
-0.02,-0.11,1.03,1.05,-2.59,-1.05
-0.02,-0.12,1.03,1.12,-2.59,-1.12
-0.02,-0.12,1.03,1.12,-2.45,-0.84
-0.02,-0.12,1.03,0.98,-2.52,-1.05
-0.02,-0.12,1.03,1.05,-2.45,-0.98
-0.01,-0.12,1.03,0.77,-2.31,-1.05
-0.01,-0.12,1.02,0.84,-2.31,-1.05
-0.01,-0.12,1.02,0.84,-2.38,-1.05
-0.02,-0.12,1.02,0.91,-2.52,-1.12
-0.02,-0.12,1.03,0.91,-2.52,-1.12
-0.02,-0.12,1.02,1.12,-2.59,-1.12
-0.02,-0.12,1.03,0.98,-2.66,-1.05
-0.02,-0.12,1.03,1.12,-2.52,-1.12
-0.02,-0.12,1.03,1.12,-2.45,-0.98
-0.02,-0.12,1.03,1.12,-2.38,-0.91
-0.02,-0.12,1.03,1.12,-2.45,-1.12
-0.02,-0.12,1.03,1.19,-2.45,-0.91
-0.02,-0.12,1.03,1.05,-2.52,-0.98
-0.02,-0.12,1.03,1.12,-2.45,-1.12
-0.01,-0.12,1.03,1.12,-2.52,-1.33
-0.01,-0.12,1.03,1.05,-2.45,-1.26
-0.02,-0.12,1.03,0.91,-2.45,-1.12
-0.02,-0.12,1.03,0.98,-2.45,-1.47
-0.02,-0.12,1.03,1.05,-2.59,-1.26
-0.01,-0.12,1.03,1.12,-2.52,-1.05
-0.02,-0.12,1.03,0.91,-2.45,-1.19
-0.02,-0.12,1.03,0.91,-2.45,-1.19
-0.01,-0.12,1.03,1.05,-2.31,-1.12
-0.02,-0.12,1.03,1.05,-2.38,-1.12
-0.02,-0.11,1.03,1.05,-2.38,-1.19
-0.02,-0.12,1.02,1.12,-2.45,-1.05
-0.02,-0.12,1.03,1.05,-2.45,-1.19
-0.02,-0.12,1.03,1.12,-2.52,-1.05
-0.02,-0.12,1.03,1.05,-2.45,-1.19
-0.02,-0.12,1.03,1.05,-2.38,-1.26
-0.02,-0.12,1.03,1.05,-2.45,-1.12
-0.02,-0.12,1.03,0.91,-2.59,-1.12
-0.02,-0.12,1.03,0.98,-2.52,-0.91
-0.02,-0.12,1.03,0.77,-2.45,-1.12
-0.02,-0.12,1.03,0.84,-2.52,-0.98
-0.02,-0.12,1.03,0.91,-2.45,-1.05
-0.02,-0.11,1.03,0.84,-2.59,-0.98
-0.02,-0.12,1.03,1.05,-2.52,-1.05
-0.02,-0.12,1.03,1.12,-2.52,-1.12
-0.02,-0.12,1.03,1.19,-2.59,-1.12
-0.02,-0.12,1.03,1.12,-2.52,-1.05
-0.02,-0.12,1.03,1.19,-2.52,-1.05
-0.02,-0.12,1.03,1.26,-2.52,-1.05
-0.02,-0.12,1.03,1.05,-2.52,-1.05
-0.02,-0.12,1.03,1.12,-2.52,-1.12
-0.02,-0.12,1.03,1.19,-2.52,-1.05
-0.02,-0.12,1.03,1.26,-2.59,-1.05
-0.02,-0.12,1.03,1.05,-2.59,-0.98
-0.02,-0.12,1.03,0.91,-2.52,-1.26
-0.02,-0.12,1.03,0.84,-2.59,-1.12
-0.02,-0.12,1.03,0.84,-2.59,-1.05
-0.02,-0.11,1.03,0.77,-2.45,-0.84
-0.02,-0.11,1.03,0.84,-2.38,-0.91
-0.01,-0.12,1.03,0.98,-2.45,-1.12
-0.02,-0.12,1.03,0.91,-2.45,-1.26
-0.02,-0.11,1.03,1.12,-2.38,-1.26
-0.02,-0.12,1.03,1.05,-2.52,-1.26
-0.02,-0.12,1.03,1.05,-2.45,-1.26
-0.01,-0.12,1.03,1.05,-2.52,-1.19
-0.02,-0.12,1.03,1.05,-2.45,-1.12
-0.02,-0.12,1.03,1.19,-2.45,-1.05
-0.02,-0.12,1.03,1.05,-2.59,-1.19
-0.02,-0.12,1.03,1.26,-2.52,-1.12
-0.02,-0.11,1.03,1.19,-2.45,-1.19
-0.01,-0.12,1.03,1.19,-2.52,-1.19
-0.02,-0.12,1.03,1.19,-2.52,-0.98
-0.02,-0.12,1.03,0.98,-2.52,-1.12
-0.01,-0.12,1.03,0.98,-2.45,-1.05
-0.02,-0.12,1.03,0.98,-2.38,-1.26
-0.02,-0.12,1.03,0.77,-2.52,-1.19
-0.02,-0.12,1.03,1.05,-2.38,-1.26
-0.02,-0.12,1.03,1.05,-2.45,-0.98
-0.02,-0.12,1.03,1.05,-2.38,-1.54
-0.02,-0.12,1.03,0.98,-2.38,-1.4
-0.01,-0.12,1.03,1.12,-2.38,-1.12
-0.01,-0.12,1.03,1.12,-2.45,-0.98
-0.02,-0.12,1.03,1.05,-2.38,-0.98
-0.02,-0.12,1.03,1.05,-2.52,-1.12
-0.01,-0.12,1.03,0.98,-2.52,-1.12
-0.01,-0.12,1.03,1.12,-2.59,-1.05
-0.01,-0.12,1.03,1.19,-2.52,-1.12
-0.01,-0.12,1.02,1.26,-2.45,-1.19
-0.01,-0.12,1.03,1.33,-2.52,-1.19
-0.01,-0.11,1.03,1.19,-2.52,-1.19
-0.01,-0.12,1.03,1.12,-2.52,-1.26
-0.01,-0.11,1.03,1.12,-2.38,-1.4
-0.01,-0.11,1.03,1.05,-2.38,-1.33
-0.02,-0.12,1.03,0.91,-2.24,-1.47
-0.02,-0.12,1.03,0.91,-2.24,-1.54
-0.02,-0.12,1.02,1.05,-2.24,-1.26
-0.02,-0.12,1.02,1.26,-2.24,-1.33
-0.02,-0.12,1.03,1.19,-2.45,-1.26
-0.02,-0.12,1.03,1.05,-2.38,-1.4
-0.02,-0.11,1.03,0.91,-2.45,-1.19
-0.02,-0.12,1.03,0.63,-2.45,-1.12
-0.02,-0.12,1.02,0.77,-2.45,-1.12
-0.02,-0.12,1.02,0.84,-2.45,-1.12
-0.02,-0.12,1.02,0.91,-2.59,-1.19
-0.02,-0.12,1.02,1.19,-2.52,-1.05
-0.02,-0.12,1.03,1.26,-2.52,-0.84
-0.02,-0.12,1.03,1.19,-2.52,-1.12
-0.02,-0.11,1.03,1.26,-2.52,-0.91
-0.02,-0.12,1.03,1.12,-2.59,-0.91
-0.02,-0.12,1.03,1.12,-2.52,-1.05
-0.01,-0.12,1.03,1.19,-2.59,-0.91
-0.01,-0.12,1.03,1.19,-2.59,-1.19
-0.01,-0.12,1.03,1.19,-2.52,-1.12
-0.01,-0.12,1.03,1.12,-2.59,-1.05
-0.01,-0.11,1.03,1.12,-2.59,-0.98
-0.01,-0.11,1.03,1.05,-2.59,-1.12
-0.01,-0.11,1.03,1.05,-2.45,-1.19
-0.01,-0.12,1.03,0.98,-2.45,-1.26
-0.02,-0.12,1.03,0.91,-2.45,-1.19
-0.01,-0.12,1.03,1.05,-2.38,-1.26
-0.02,-0.11,1.03,1.12,-2.38,-1.05
-0.02,-0.12,1.03,1.05,-2.45,-1.19
-0.02,-0.12,1.03,0.91,-2.45,-1.33
-0.02,-0.12,1.03,0.98,-2.45,-1.26
-0.02,-0.12,1.03,0.98,-2.45,-1.33
-0.02,-0.12,1.02,0.98,-2.52,-1.19
-0.02,-0.12,1.02,0.98,-2.45,-0.98
-0.02,-0.12,1.02,1.12,-2.45,-1.05
-0.02,-0.12,1.03,1.05,-2.52,-1.12
-0.02,-0.12,1.03,1.12,-2.59,-1.19
-0.02,-0.12,1.03,1.05,-2.52,-1.05
-0.02,-0.12,1.03,0.98,-2.52,-1.12
-0.02,-0.12,1.03,0.98,-2.59,-1.05
-0.02,-0.12,1.03,1.12,-2.52,-0.98
-0.01,-0.12,1.03,1.19,-2.66,-0.91
-0.01,-0.12,1.03,1.33,-2.52,-1.12
-0.02,-0.11,1.02,1.19,-2.52,-1.19
-0.01,-0.11,1.03,1.19,-2.45,-0.98
-0.02,-0.11,1.03,1.26,-2.52,-0.91
-0.02,-0.12,1.03,1.12,-2.52,-0.84
-0.02,-0.11,1.03,0.91,-2.52,-1.12
-0.02,-0.11,1.03,0.98,-2.52,-0.98
-0.02,-0.11,1.03,0.91,-2.45,-1.12
-0.01,-0.12,1.03,0.98,-2.52,-1.26
-0.02,-0.12,1.03,1.05,-2.52,-1.19
-0.02,-0.12,1.03,0.98,-2.45,-1.26
-0.02,-0.12,1.03,0.84,-2.38,-1.12
-0.01,-0.12,1.03,0.7,-2.24,-0.91
-0.02,-0.12,1.02,0.91,-2.38,-0.56
-0.02,-0.11,1.02,0.91,-2.52,-0.7
-0.02,-0.11,1.03,0.84,-2.45,-1.12
-0.02,-0.12,1.03,1.05,-2.45,-0.98
-0.02,-0.12,1.03,0.84,-2.38,-1.05
-0.02,-0.12,1.03,1.12,-2.45,-0.84
-0.02,-0.12,1.03,0.98,-2.45,-1.26
-0.01,-0.12,1.03,0.91,-2.52,-1.12
-0.02,-0.12,1.02,0.91,-2.52,-1.05
-0.01,-0.12,1.03,0.91,-2.52,-0.98
-0.01,-0.12,1.03,0.91,-2.59,-1.05
-0.02,-0.12,1.03,0.98,-2.59,-1.05
-0.01,-0.12,1.03,1.12,-2.52,-1.19
-0.02,-0.12,1.03,1.12,-2.38,-1.12
-0.02,-0.12,1.03,1.12,-2.38,-1.33
-0.02,-0.12,1.03,0.91,-2.45,-1.12
-0.02,-0.12,1.03,1.12,-2.45,-1.33
-0.02,-0.12,1.02,1.05,-2.38,-1.19
-0.02,-0.12,1.03,0.91,-2.45,-1.19
-0.02,-0.12,1.03,1.05,-2.45,-1.12
-0.02,-0.12,1.03,0.98,-2.59,-1.19
-0.02,-0.12,1.03,1.05,-2.52,-1.19
-0.02,-0.12,1.03,0.77,-2.52,-1.26
-0.02,-0.12,1.03,0.91,-2.45,-0.91
-0.02,-0.12,1.03,0.84,-2.38,-1.26
-0.02,-0.12,1.03,0.98,-2.52,-1.19
-0.02,-0.12,1.03,0.91,-2.52,-0.98
-0.01,-0.12,1.03,1.05,-2.52,-0.98
-0.01,-0.12,1.03,0.98,-2.52,-1.05
-0.02,-0.12,1.03,0.84,-2.59,-1.12
-0.01,-0.12,1.03,0.84,-2.52,-1.26
-0.02,-0.12,1.03,0.91,-2.45,-1.12
-0.02,-0.12,1.03,1.12,-2.59,-0.98
-0.02,-0.12,1.03,1.19,-2.45,-1.26
-0.01,-0.12,1.03,1.19,-2.52,-1.19
-0.02,-0.12,1.03,1.26,-2.45,-1.19
-0.01,-0.12,1.03,0.98,-2.59,-1.47
-0.01,-0.12,1.03,1.05,-2.52,-1.12
-0.01,-0.12,1.03,1.05,-2.52,-1.12
-0.02,-0.12,1.03,0.84,-2.38,-1.26
-0.02,-0.12,1.03,0.77,-2.52,-1.19
-0.02,-0.12,1.03,0.98,-2.59,-0.98
-0.02,-0.12,1.03,0.84,-2.52,-1.12
-0.02,-0.12,1.03,0.91,-2.59,-1.05
-0.02,-0.12,1.03,0.77,-2.59,-1.19
-0.02,-0.12,1.03,0.77,-2.66,-1.26
-0.02,-0.12,1.03,0.77,-2.59,-1.19
-0.02,-0.12,1.03,0.7,-2.66,-1.12
-0.02,-0.12,1.02,0.77,-2.66,-1.19
-0.02,-0.12,1.02,0.84,-2.66,-0.77
-0.02,-0.12,1.02,0.91,-2.66,-0.98
-0.02,-0.12,1.03,0.84,-2.59,-0.77
-0.02,-0.12,1.03,0.98,-2.66,-0.98
-0.02,-0.12,1.03,0.98,-2.59,-1.05
-0.02,-0.12,1.03,0.91,-2.52,-1.05
-0.01,-0.12,1.03,0.63,-2.52,-0.91
-0.01,-0.12,1.03,0.7,-2.52,-1.12
-0.01,-0.12,1.02,0.91,-2.59,-1.05
-0.01,-0.12,1.02,0.84,-2.45,-1.12
-0.01,-0.12,1.03,1.05,-2.59,-0.91
-0.01,-0.11,1.03,0.98,-2.45,-0.91
-0.01,-0.11,1.03,1.05,-2.52,-0.98
-0.01,-0.12,1.03,1.19,-2.38,-0.91
-0.01,-0.12,1.03,1.12,-2.45,-1.05
-0.02,-0.12,1.03,1.05,-2.45,-1.05
-0.02,-0.12,1.03,0.91,-2.45,-1.12
-0.02,-0.12,1.03,0.91,-2.52,-0.84
-0.02,-0.12,1.03,0.91,-2.52,-1.05
-0.02,-0.12,1.03,0.77,-2.59,-1.12
-0.02,-0.12,1.03,0.84,-2.59,-1.19
-0.02,-0.12,1.03,0.84,-2.52,-1.19
-0.02,-0.12,1.03,0.84,-2.38,-1.05
-0.02,-0.12,1.03,0.84,-2.38,-1.05
-0.02,-0.12,1.03,0.84,-2.38,-0.98
-0.02,-0.12,1.03,0.91,-2.31,-1.12
-0.02,-0.12,1.03,0.91,-2.38,-1.19
-0.02,-0.12,1.03,0.91,-2.45,-1.05
-0.02,-0.12,1.03,1.05,-2.45,-1.05
-0.01,-0.12,1.03,0.91,-2.59,-0.98
-0.01,-0.12,1.03,0.98,-2.59,-1.05
-0.01,-0.12,1.02,0.98,-2.52,-0.98
-0.01,-0.12,1.03,0.98,-2.66,-0.91
-0.01,-0.12,1.02,0.91,-2.59,-1.26
-0.02,-0.12,1.03,1.12,-2.59,-1.19
-0.02,-0.12,1.03,1.19,-2.73,-0.91
-0.02,-0.12,1.03,0.91,-2.45,-1.12
-0.01,-0.12,1.03,1.05,-2.45,-1.19
-0.02,-0.12,1.03,1.12,-2.52,-0.98
-0.01,-0.12,1.03,1.05,-2.45,-1.05
-0.01,-0.12,1.03,0.98,-2.38,-1.19
-0.02,-0.12,1.03,0.91,-2.52,-1.12
-0.02,-0.12,1.03,0.98,-2.59,-0.98
-0.02,-0.12,1.03,0.84,-2.52,-1.12
-0.02,-0.12,1.03,0.91,-2.59,-1.05
-0.02,-0.12,1.03,0.84,-2.52,-0.91
-0.02,-0.12,1.03,0.77,-2.52,-1.05
-0.02,-0.12,1.03,0.84,-2.45,-0.98
-0.02,-0.12,1.02,0.7,-2.59,-1.12
-0.02,-0.12,1.03,0.91,-2.45,-0.98
-0.02,-0.12,1.02,0.98,-2.52,-0.91
-0.02,-0.12,1.03,0.84,-2.59,-0.91
-0.02,-0.12,1.03,0.91,-2.59,-1.05
-0.02,-0.12,1.03,0.91,-2.66,-0.98
-0.02,-0.12,1.03,0.91,-2.66,-1.05
-0.02,-0.12,1.03,1.05,-2.52,-0.91
-0.02,-0.12,1.03,1.19,-2.59,-0.98
-0.02,-0.12,1.03,1.33,-2.59,-0.91
-0.02,-0.12,1.03,1.12,-2.52,-1.05
-0.02,-0.12,1.03,1.19,-2.45,-0.91
-0.02,-0.12,1.03,1.05,-2.45,-1.12
-0.01,-0.12,1.03,1.12,-2.52,-0.98
-0.02,-0.12,1.03,0.91,-2.52,-1.12
-0.02,-0.12,1.03,0.98,-2.52,-1.12
-0.02,-0.12,1.03,1.05,-2.52,-1.05
-0.02,-0.12,1.02,0.91,-2.52,-1.19
-0.01,-0.12,1.03,0.98,-2.52,-1.12
-0.01,-0.12,1.03,0.91,-2.52,-1.26
-0.02,-0.12,1.03,0.98,-2.45,-0.98
-0.02,-0.12,1.03,0.84,-2.45,-1.19
-0.02,-0.12,1.03,0.84,-2.52,-1.19
-0.02,-0.12,1.03,0.84,-2.59,-1.19
-0.01,-0.12,1.03,0.63,-2.59,-1.05
-0.01,-0.12,1.03,0.84,-2.59,-0.98
-0.01,-0.12,1.02,0.77,-2.52,-0.98
-0.02,-0.12,1.02,1.05,-2.66,-1.12
-0.01,-0.12,1.02,1.12,-2.52,-1.19
-0.01,-0.12,1.02,1.33,-2.59,-1.05
-0.01,-0.12,1.03,1.33,-2.59,-1.05
-0.01,-0.12,1.03,1.12,-2.66,-1.05
-0.01,-0.12,1.03,1.05,-2.52,-1.05
-0.01,-0.12,1.03,1.05,-2.45,-1.05
-0.02,-0.12,1.03,0.84,-2.45,-1.19
-0.01,-0.12,1.03,0.84,-2.38,-1.12
-0.02,-0.12,1.02,0.91,-2.38,-1.12
-0.01,-0.12,1.02,1.05,-2.38,-1.19
-0.01,-0.12,1.02,1.05,-2.45,-1.19
-0.02,-0.12,1.03,1.12,-2.45,-1.12
-0.02,-0.12,1.03,1.12,-2.52,-1.26
-0.01,-0.12,1.03,0.98,-2.52,-1.05
-0.02,-0.12,1.03,0.77,-2.45,-1.19
-0.01,-0.12,1.03,0.84,-2.45,-1.19
-0.02,-0.12,1.02,0.98,-2.45,-1.05
-0.02,-0.12,1.02,0.98,-2.38,-1.33
-0.02,-0.12,1.02,1.19,-2.38,-1.33
-0.02,-0.12,1.03,1.26,-2.45,-1.4
-0.01,-0.12,1.03,1.4,-2.45,-1.26
-0.02,-0.12,1.03,1.26,-2.45,-1.19
-0.01,-0.12,1.03,1.19,-2.38,-1.12
-0.02,-0.12,1.03,0.98,-2.52,-1.12
-0.02,-0.12,1.03,1.05,-2.38,-1.12
-0.02,-0.12,1.03,1.26,-2.45,-0.91
-0.02,-0.12,1.02,1.12,-2.38,-1.19
-0.01,-0.12,1.03,1.26,-2.45,-1.12
-0.02,-0.12,1.03,1.12,-2.31,-1.19
-0.02,-0.12,1.03,0.91,-2.31,-1.12
-0.02,-0.12,1.03,0.91,-2.38,-1.19
-0.01,-0.12,1.03,0.98,-2.45,-1.19
-0.01,-0.12,1.02,1.12,-2.59,-1.12
-0.01,-0.12,1.02,1.05,-2.45,-1.12
-0.01,-0.12,1.03,1.19,-2.45,-1.12
-0.02,-0.12,1.03,1.26,-2.45,-1.19
-0.02,-0.12,1.03,1.19,-2.45,-1.19
-0.01,-0.12,1.03,1.19,-2.31,-1.19
-0.01,-0.12,1.03,1.19,-2.38,-1.12
-0.02,-0.12,1.03,1.19,-2.38,-1.19
-0.01,-0.12,1.03,1.19,-2.38,-1.26
-0.02,-0.12,1.03,1.26,-2.38,-1.19
-0.02,-0.12,1.03,1.26,-2.31,-1.19
-0.02,-0.12,1.03,1.26,-2.31,-1.33
-0.02,-0.12,1.03,1.12,-2.31,-1.33
-0.01,-0.12,1.03,1.19,-2.24,-1.19
-0.02,-0.12,1.03,1.12,-2.24,-1.12
-0.01,-0.12,1.02,1.26,-2.38,-1.19
-0.01,-0.12,1.03,1.4,-2.31,-1.05
-0.02,-0.12,1.03,1.47,-2.24,-1.19
-0.02,-0.12,1.03,1.4,-2.17,-1.4
-0.01,-0.12,1.03,1.4,-2.24,-1.26
-0.01,-0.12,1.03,1.4,-2.17,-1.4
-0.01,-0.12,1.03,1.47,-2.17,-1.26
-0.01,-0.12,1.03,1.4,-2.17,-1.12
-0.01,-0.12,1.02,1.68,-2.31,-0.91
-0.02,-0.12,1.02,1.68,-2.45,-0.98
-0.02,-0.12,1.03,1.54,-2.52,-0.98
-0.02,-0.12,1.03,1.33,-2.52,-0.98
-0.02,-0.12,1.03,1.26,-2.45,-0.98
-0.02,-0.12,1.03,0.91,-2.52,-1.19
-0.02,-0.12,1.03,0.77,-2.45,-1.19
-0.02,-0.11,1.03,0.77,-2.52,-0.98
-0.02,-0.12,1.03,0.63,-2.45,-1.19
-0.02,-0.12,1.03,0.63,-2.45,-1.26
-0.02,-0.12,1.03,0.63,-2.45,-1.12
-0.02,-0.12,1.03,0.84,-2.45,-1.12
-0.02,-0.12,1.03,0.7,-2.38,-1.19
-0.01,-0.12,1.02,0.84,-2.38,-1.19
-0.02,-0.12,1.02,1.05,-2.31,-1.05
-0.01,-0.12,1.02,0.91,-2.45,-1.33
-0.01,-0.12,1.02,1.12,-2.73,-1.19
-0.01,-0.11,1.03,1.26,-2.59,-0.98
-0.02,-0.11,1.03,1.47,-2.59,-0.98
-0.01,-0.11,1.03,1.54,-2.59,-1.12
-0.01,-0.11,1.03,1.75,-2.52,-1.12
-0.01,-0.12,1.03,1.47,-2.45,-1.19
-0.01,-0.12,1.03,1.54,-2.31,-1.05
-0.01,-0.12,1.04,1.4,-2.38,-0.98
-0.01,-0.12,1.04,0.98,-2.38,-0.98
-0.01,-0.12,1.03,0.7,-2.38,-1.05
-0.01,-0.12,1.03,0.21,-2.59,-1.26
-0.01,-0.12,1.03,0.35,-2.38,-1.12
-0.01,-0.11,1.03,0.21,-2.45,-1.26
-0.02,-0.11,1.02,0.56,-2.38,-1.4
-0.02,-0.11,1.02,0.77,-2.31,-1.4
-0.02,-0.12,1.03,0.91,-2.38,-1.47
-0.02,-0.12,1.03,1.12,-2.31,-1.19
-0.02,-0.12,1.03,1.19,-2.38,-1.33
-0.02,-0.12,1.03,1.19,-2.24,-1.19
-0.02,-0.12,1.03,1.19,-2.31,-1.12
-0.02,-0.12,1.02,1.26,-2.31,-1.33
-0.02,-0.12,1.02,1.33,-2.31,-1.19
-0.02,-0.12,1.02,1.4,-2.52,-1.12
-0.02,-0.12,1.03,1.4,-2.52,-1.12
-0.02,-0.12,1.03,1.33,-2.59,-1.05
-0.02,-0.12,1.03,1.26,-2.52,-1.12
-0.02,-0.12,1.03,1.05,-2.45,-1.12
-0.02,-0.12,1.03,0.77,-2.38,-0.98
-0.02,-0.12,1.03,0.77,-2.38,-0.98
-0.02,-0.11,1.03,0.84,-2.45,-0.98
-0.02,-0.12,1.02,0.77,-2.59,-0.98
-0.01,-0.12,1.02,0.98,-2.66,-0.98
-0.01,-0.12,1.02,0.98,-2.73,-0.98
-0.01,-0.12,1.03,1.05,-2.66,-1.12
-0.01,-0.12,1.03,1.05,-2.38,-1.12
-0.01,-0.12,1.03,1.19,-2.38,-1.12
-0.01,-0.12,1.03,1.12,-2.31,-1.05
-0.01,-0.11,1.03,1.26,-2.38,-1.12
-0.02,-0.11,1.03,1.26,-2.31,-1.05
-0.02,-0.11,1.03,1.4,-2.38,-1.19
-0.01,-0.12,1.03,1.26,-2.52,-1.33
-0.01,-0.12,1.03,1.12,-2.45,-1.05
-0.01,-0.12,1.03,0.91,-2.38,-1.33
-0.01,-0.12,1.03,0.77,-2.38,-1.33
-0.02,-0.11,1.03,0.77,-2.38,-1.12
-0.02,-0.11,1.03,0.84,-2.38,-1.4
-0.02,-0.12,1.02,0.98,-2.31,-1.47
-0.02,-0.12,1.03,0.84,-2.31,-1.26
-0.02,-0.12,1.02,0.84,-2.38,-1.4
-0.02,-0.12,1.03,1.05,-2.31,-1.33
-0.02,-0.12,1.03,1.05,-2.31,-1.33
-0.02,-0.12,1.03,1.12,-2.31,-1.26
-0.02,-0.12,1.03,1.12,-2.31,-1.19
-0.02,-0.12,1.02,1.12,-2.38,-1.12
-0.02,-0.12,1.02,1.19,-2.52,-1.12
-0.02,-0.12,1.02,1.26,-2.52,-1.12
-0.02,-0.12,1.03,1.26,-2.59,-1.05
-0.02,-0.12,1.03,1.12,-2.59,-1.19
-0.02,-0.12,1.03,1.19,-2.45,-0.91
-0.02,-0.12,1.03,1.12,-2.52,-1.05
-0.02,-0.11,1.03,1.05,-2.45,-1.05
-0.01,-0.12,1.03,0.84,-2.45,-1.12
-0.01,-0.12,1.03,0.84,-2.31,-1.19
-0.01,-0.12,1.03,0.84,-2.38,-1.19
-0.01,-0.12,1.03,0.98,-2.38,-1.12
-0.01,-0.12,1.03,0.91,-2.31,-1.26
-0.01,-0.12,1.03,0.91,-2.38,-1.26
-0.01,-0.12,1.03,0.91,-2.38,-1.19
-0.01,-0.11,1.03,0.98,-2.31,-1.26
-0.01,-0.11,1.03,1.19,-2.31,-1.19
-0.01,-0.11,1.02,1.12,-2.38,-1.19
-0.02,-0.12,1.03,1.26,-2.31,-1.26
-0.02,-0.12,1.03,1.26,-2.38,-1.4
-0.02,-0.12,1.03,1.26,-2.45,-1.19
-0.02,-0.12,1.03,1.19,-2.38,-1.33
-0.02,-0.12,1.03,1.05,-2.38,-1.12
-0.02,-0.12,1.03,0.98,-2.31,-1.33
-0.02,-0.12,1.03,0.77,-2.38,-1.26
-0.02,-0.12,1.02,0.84,-2.31,-1.12
-0.02,-0.12,1.02,0.98,-2.38,-0.98
-0.02,-0.12,1.02,0.91,-2.38,-1.19
-0.02,-0.12,1.03,0.98,-2.45,-1.19
-0.02,-0.12,1.03,0.84,-2.52,-1.12
-0.02,-0.12,1.03,0.98,-2.52,-1.12
-0.02,-0.12,1.03,1.05,-2.45,-1.05
-0.02,-0.12,1.03,1.12,-2.45,-1.05
-0.02,-0.12,1.03,1.12,-2.52,-1.05
-0.02,-0.12,1.03,1.19,-2.52,-1.05
-0.02,-0.12,1.03,1.19,-2.45,-1.05
-0.02,-0.12,1.03,1.19,-2.45,-1.05
-0.02,-0.12,1.03,1.19,-2.45,-1.12
-0.02,-0.12,1.03,1.05,-2.38,-1.19
-0.02,-0.12,1.03,1.05,-2.38,-1.26
-0.02,-0.12,1.03,0.84,-2.52,-1.19
-0.02,-0.12,1.02,0.91,-2.52,-1.19
-0.02,-0.11,1.02,0.98,-2.59,-1.05
-0.02,-0.12,1.03,1.12,-2.52,-1.33
-0.01,-0.12,1.03,1.19,-2.59,-1.12
-0.01,-0.12,1.03,1.19,-2.59,-1.12
-0.01,-0.12,1.03,1.12,-2.38,-1.12
-0.01,-0.12,1.03,1.05,-2.38,-1.19
-0.01,-0.12,1.03,1.05,-2.38,-1.26
-0.02,-0.12,1.03,0.98,-2.52,-1.12
-0.02,-0.12,1.03,0.98,-2.45,-1.4
-0.02,-0.12,1.02,1.05,-2.52,-1.26
-0.02,-0.12,1.02,1.19,-2.45,-1.19
-0.02,-0.12,1.03,1.12,-2.52,-1.26
-0.01,-0.12,1.03,1.12,-2.45,-1.33
-0.02,-0.12,1.03,1.19,-2.45,-1.12
-0.02,-0.12,1.03,1.05,-2.45,-1.05
-0.02,-0.12,1.03,1.12,-2.38,-1.12
-0.02,-0.12,1.03,1.12,-2.45,-1.19
-0.02,-0.12,1.03,1.12,-2.45,-1.05
-0.02,-0.12,1.03,1.05,-2.38,-0.98
-0.02,-0.12,1.03,0.91,-2.52,-1.12
-0.02,-0.12,1.03,1.05,-2.45,-1.05
-0.02,-0.12,1.03,0.98,-2.45,-1.12
-0.02,-0.12,1.03,0.98,-2.38,-1.05
-0.02,-0.12,1.03,0.84,-2.59,-1.26
-0.02,-0.12,1.03,0.98,-2.59,-0.98
-0.01,-0.12,1.03,1.05,-2.45,-1.05
-0.02,-0.12,1.03,0.91,-2.45,-1.26
-0.01,-0.12,1.03,1.12,-2.38,-1.19
-0.02,-0.12,1.03,1.19,-2.38,-1.12
-0.01,-0.12,1.03,1.26,-2.45,-1.05
-0.01,-0.12,1.03,1.19,-2.45,-0.98
-0.01,-0.12,1.03,1.12,-2.45,-1.12
-0.02,-0.12,1.03,0.98,-2.52,-1.26
-0.02,-0.12,1.03,1.05,-2.45,-1.19
-0.02,-0.12,1.03,1.12,-2.45,-1.19
-0.02,-0.12,1.03,1.12,-2.45,-1.26
-0.02,-0.12,1.03,1.19,-2.45,-1.12
-0.02,-0.12,1.03,1.12,-2.38,-1.26
-0.02,-0.12,1.03,1.05,-2.45,-0.98
-0.02,-0.12,1.03,0.77,-2.52,-1.19
-0.02,-0.12,1.03,0.84,-2.45,-1.19
-0.02,-0.12,1.03,1.12,-2.45,-1.05
-0.02,-0.12,1.03,1.05,-2.52,-1.12
-0.02,-0.12,1.03,1.05,-2.52,-0.91
-0.02,-0.12,1.03,0.91,-2.59,-0.84
-0.02,-0.12,1.03,0.98,-2.52,-1.05
-0.02,-0.12,1.03,0.98,-2.52,-0.91
-0.02,-0.12,1.03,0.98,-2.38,-1.05
-0.02,-0.12,1.03,1.19,-2.45,-0.98
-0.02,-0.12,1.02,1.12,-2.52,-1.19
-0.02,-0.12,1.03,1.26,-2.66,-1.19
-0.01,-0.12,1.03,1.4,-2.59,-0.98
-0.01,-0.12,1.03,1.26,-2.45,-1.12
-0.02,-0.12,1.03,1.05,-2.52,-1.26
-0.02,-0.12,1.03,1.19,-2.52,-1.05
-0.02,-0.12,1.03,1.19,-2.52,-0.98
-0.02,-0.12,1.03,1.12,-2.59,-1.05
-0.02,-0.12,1.03,0.98,-2.66,-1.12
-0.02,-0.12,1.03,0.98,-2.59,-0.91
-0.02,-0.12,1.03,0.98,-2.59,-0.91
-0.02,-0.12,1.03,0.91,-2.59,-0.98
-0.02,-0.12,1.03,0.98,-2.59,-1.05
-0.02,-0.12,1.03,0.91,-2.45,-0.84
-0.02,-0.12,1.03,1.12,-2.59,-0.91
-0.02,-0.12,1.03,1.33,-2.52,-0.91
-0.02,-0.12,1.03,1.26,-2.52,-1.12
-0.02,-0.12,1.03,1.19,-2.52,-1.05
-0.02,-0.12,1.03,1.19,-2.59,-1.05
-0.01,-0.12,1.03,0.98,-2.8,-1.05
-0.01,-0.12,1.02,0.77,-2.73,-1.05
-0.01,-0.12,1.02,0.98,-2.87,-0.91
-0.01,-0.12,1.02,0.98,-2.87,-1.12
-0.02,-0.12,1.02,1.26,-2.94,-0.98
-0.01,-0.11,1.02,1.47,-2.94,-0.91
-0.02,-0.11,1.03,1.61,-2.87,-0.98
-0.02,-0.11,1.03,1.75,-2.87,-0.7
-0.02,-0.11,1.04,1.68,-2.8,-0.84
-0.02,-0.11,1.04,1.61,-2.59,-0.84
-0.02,-0.11,1.03,1.47,-2.73,-1.05
-0.01,-0.12,1.03,1.33,-2.73,-0.84
-0.02,-0.12,1.03,1.19,-2.73,-0.77
-0.02,-0.12,1.03,0.98,-2.87,-0.84
-0.02,-0.12,1.03,0.7,-2.8,-0.56
-0.02,-0.12,1.03,0.21,-2.73,-0.63
-0.02,-0.12,1.02,0.21,-2.73,-0.77
-0.02,-0.12,1.03,0.21,-2.73,-0.84
-0.01,-0.12,1.03,0.35,-2.8,-0.91
-0.01,-0.12,1.02,0.49,-2.66,-0.49
-0.01,-0.12,1.02,0.63,-2.73,-0.35
-0.01,-0.12,1.02,0.63,-2.73,-0.28
-0.01,-0.12,1.02,1.05,-2.87,-0.42
-0.01,-0.12,1.02,1.26,-2.87,-0.42
-0.02,-0.12,1.03,1.54,-3.01,-0.42
-0.02,-0.11,1.03,1.54,-3.08,-0.56
-0.02,-0.11,1.03,1.54,-3.08,-0.7
-0.02,-0.11,1.03,1.54,-3.01,-0.7
-0.02,-0.12,1.03,1.68,-2.8,-0.91
-0.02,-0.12,1.03,1.61,-2.73,-0.98
-0.01,-0.12,1.03,1.4,-2.66,-0.98
-0.01,-0.11,1.04,1.12,-2.59,-0.84
-0.01,-0.12,1.04,0.91,-2.59,-0.98
-0.01,-0.12,1.03,0.7,-2.59,-0.91
-0.01,-0.12,1.03,0.49,-2.66,-1.12
-0.01,-0.12,1.03,0.49,-2.66,-0.98
-0.01,-0.12,1.02,0.42,-2.66,-0.91
-0.01,-0.12,1.02,0.49,-2.73,-1.12
-0.01,-0.12,1.03,0.84,-2.59,-0.91
-0.01,-0.12,1.02,0.98,-2.45,-1.05
-0.01,-0.11,1.03,1.12,-2.59,-1.19
-0.01,-0.12,1.03,1.26,-2.52,-1.12
-0.01,-0.12,1.03,1.4,-2.52,-1.19
-0.01,-0.12,1.03,1.47,-2.59,-1.05
-0.02,-0.12,1.03,1.54,-2.52,-1.12
-0.01,-0.12,1.03,1.47,-2.59,-0.98
-0.01,-0.12,1.03,1.47,-2.59,-1.12
-0.01,-0.12,1.03,1.33,-2.66,-1.05
-0.01,-0.12,1.03,1.26,-2.66,-1.19
-0.01,-0.12,1.03,1.19,-2.59,-1.19
-0.02,-0.12,1.03,1.05,-2.59,-1.19
-0.02,-0.12,1.03,1.05,-2.52,-1.12
-0.02,-0.12,1.04,1.05,-2.45,-0.98
-0.02,-0.11,1.03,0.84,-2.38,-1.05
-0.02,-0.12,1.03,0.7,-2.45,-1.26
-0.01,-0.12,1.03,0.7,-2.45,-1.12
-0.01,-0.12,1.03,0.7,-2.45,-1.05
-0.01,-0.12,1.03,0.7,-2.38,-1.05
-0.01,-0.12,1.02,0.77,-2.45,-1.26
-0.02,-0.12,1.02,0.98,-2.52,-1.05
-0.02,-0.12,1.03,1.05,-2.38,-1.12
-0.01,-0.12,1.03,1.05,-2.45,-0.98
-0.02,-0.12,1.03,1.05,-2.45,-1.12
-0.01,-0.12,1.03,1.19,-2.52,-0.84
-0.01,-0.12,1.03,1.26,-2.45,-0.98
-0.01,-0.12,1.03,1.12,-2.59,-1.26
-0.01,-0.12,1.03,1.19,-2.59,-1.12
-0.01,-0.12,1.03,1.26,-2.52,-1.19
-0.01,-0.12,1.03,1.19,-2.59,-1.05
-0.01,-0.12,1.03,1.19,-2.52,-1.05
-0.01,-0.12,1.03,1.12,-2.38,-1.19
-0.02,-0.12,1.03,0.91,-2.31,-1.12
-0.02,-0.12,1.03,0.91,-2.38,-1.4
-0.02,-0.12,1.03,0.84,-2.45,-1.19
-0.01,-0.12,1.03,0.77,-2.45,-1.19
-0.01,-0.12,1.03,0.84,-2.38,-1.26
-0.02,-0.12,1.03,0.77,-2.45,-1.19
-0.02,-0.12,1.03,0.84,-2.38,-1.05
-0.02,-0.12,1.03,0.98,-2.38,-0.84
-0.01,-0.12,1.03,0.84,-2.24,-1.19
-0.01,-0.12,1.03,0.91,-2.24,-1.26
-0.01,-0.12,1.03,1.12,-2.31,-1.19
-0.01,-0.12,1.03,1.19,-2.31,-0.98
-0.02,-0.12,1.03,0.98,-2.45,-1.19
-0.01,-0.12,1.03,1.05,-2.45,-1.19
-0.02,-0.12,1.03,1.05,-2.52,-0.98
-0.01,-0.12,1.03,1.12,-2.52,-1.05
-0.02,-0.12,1.03,1.05,-2.59,-1.12
-0.01,-0.11,1.03,1.19,-2.66,-1.12
-0.01,-0.12,1.03,1.19,-2.52,-1.26
-0.02,-0.11,1.03,1.19,-2.45,-1.12
-0.01,-0.12,1.03,1.26,-2.45,-1.05
-0.01,-0.12,1.03,0.98,-2.31,-1.05
-0.01,-0.12,1.03,1.05,-2.38,-1.12
-0.01,-0.12,1.03,1.05,-2.31,-1.19
-0.02,-0.12,1.03,0.91,-2.45,-1.19
-0.02,-0.12,1.03,0.77,-2.45,-1.12
-0.02,-0.12,1.03,0.91,-2.45,-1.19
-0.02,-0.12,1.03,0.77,-2.45,-1.12
-0.01,-0.12,1.03,0.91,-2.52,-1.05
-0.02,-0.12,1.03,0.77,-2.52,-1.05
-0.01,-0.12,1.03,0.77,-2.38,-1.12
-0.02,-0.12,1.03,0.84,-2.38,-1.12
-0.02,-0.12,1.03,0.77,-2.52,-0.98
-0.01,-0.12,1.03,0.84,-2.59,-1.05
-0.02,-0.12,1.02,0.98,-2.52,-0.84
-0.02,-0.11,1.02,0.98,-2.59,-1.12
-0.01,-0.11,1.03,1.19,-2.52,-1.05
-0.01,-0.11,1.03,1.26,-2.45,-1.05
-0.02,-0.11,1.03,1.54,-2.66,-1.05
-0.01,-0.12,1.03,1.26,-2.52,-1.19
-0.01,-0.12,1.03,1.26,-2.45,-1.12
-0.01,-0.12,1.03,1.19,-2.52,-0.98
-0.01,-0.12,1.03,0.84,-2.45,-0.98
-0.01,-0.12,1.03,0.7,-2.52,-1.12
-0.01,-0.12,1.03,0.84,-2.38,-1.19
-0.01,-0.12,1.03,0.77,-2.45,-1.05
-0.01,-0.12,1.03,0.84,-2.52,-0.98
-0.01,-0.12,1.03,0.84,-2.38,-1.33
-0.01,-0.12,1.03,0.84,-2.38,-1.12
-0.02,-0.12,1.03,0.91,-2.45,-1.4
-0.02,-0.12,1.03,0.98,-2.45,-1.33
-0.02,-0.12,1.02,1.05,-2.52,-1.19
-0.02,-0.12,1.03,0.84,-2.45,-1.33
-0.01,-0.12,1.02,1.05,-2.52,-1.12
-0.02,-0.11,1.02,1.4,-2.45,-0.98
-0.02,-0.12,1.03,1.4,-2.45,-1.19
-0.02,-0.12,1.03,1.33,-2.52,-1.05
-0.02,-0.12,1.03,1.33,-2.52,-1.05
-0.02,-0.12,1.03,1.19,-2.52,-0.98
-0.01,-0.12,1.03,0.98,-2.45,-0.84
-0.01,-0.12,1.03,0.91,-2.52,-1.05
-0.01,-0.12,1.03,0.77,-2.45,-0.84
-0.01,-0.12,1.03,0.7,-2.52,-1.05
-0.01,-0.12,1.03,0.77,-2.52,-0.98
-0.01,-0.12,1.03,0.91,-2.45,-1.12
-0.01,-0.12,1.03,0.98,-2.59,-1.05
-0.01,-0.12,1.03,0.98,-2.52,-1.19
-0.01,-0.12,1.03,1.12,-2.45,-1.26
-0.01,-0.12,1.03,1.12,-2.45,-1.33
-0.01,-0.12,1.03,1.12,-2.31,-1.33
-0.01,-0.12,1.03,1.19,-2.31,-1.33
-0.01,-0.12,1.03,1.05,-2.24,-1.26
-0.01,-0.12,1.03,1.19,-2.31,-1.26
-0.02,-0.12,1.03,1.33,-2.31,-1.26
-0.02,-0.11,1.03,1.33,-2.31,-1.05
-0.02,-0.12,1.03,1.4,-2.45,-1.05
-0.02,-0.12,1.03,1.19,-2.38,-1.19
-0.01,-0.12,1.03,1.05,-2.38,-1.19
-0.01,-0.12,1.03,0.98,-2.45,-1.12
-0.02,-0.12,1.03,0.77,-2.45,-1.19
-0.02,-0.12,1.03,0.7,-2.45,-1.05
-0.02,-0.12,1.03,0.77,-2.38,-1.12
-0.02,-0.12,1.02,0.84,-2.45,-1.19
-0.02,-0.12,1.02,0.91,-2.45,-1.12
-0.02,-0.11,1.03,0.98,-2.52,-1.33
-0.01,-0.11,1.02,1.26,-2.45,-1.12
-0.02,-0.12,1.03,1.26,-2.52,-1.26
-0.02,-0.12,1.03,1.4,-2.38,-1.12
-0.02,-0.12,1.03,1.33,-2.45,-0.98
-0.02,-0.12,1.03,1.26,-2.45,-1.05
-0.01,-0.12,1.03,1.19,-2.52,-0.98
-0.01,-0.12,1.03,1.12,-2.45,-1.12
-0.01,-0.12,1.03,0.98,-2.52,-0.98
-0.01,-0.12,1.03,1.05,-2.59,-0.84
-0.01,-0.12,1.02,0.84,-2.52,-1.12
-0.01,-0.12,1.03,0.91,-2.52,-1.19
-0.01,-0.12,1.03,0.91,-2.38,-1.12
-0.01,-0.12,1.03,0.84,-2.52,-1.19
-0.01,-0.12,1.03,0.91,-2.52,-1.19
-0.01,-0.12,1.03,0.63,-2.38,-1.4
-0.01,-0.12,1.03,0.7,-2.38,-1.12
-0.01,-0.12,1.03,0.7,-2.31,-1.12
-0.01,-0.12,1.02,0.91,-2.38,-1.19
-0.02,-0.12,1.02,1.19,-2.45,-1.26
-0.02,-0.12,1.02,1.33,-2.52,-1.33
-0.02,-0.12,1.03,1.4,-2.45,-1.19
-0.02,-0.12,1.03,1.33,-2.52,-1.4
-0.02,-0.12,1.03,1.26,-2.45,-1.26
-0.02,-0.12,1.03,0.98,-2.45,-1.12
-0.02,-0.12,1.03,0.98,-2.52,-1.05
-0.02,-0.12,1.03,0.77,-2.52,-1.26
-0.02,-0.12,1.03,0.84,-2.45,-1.12
-0.02,-0.12,1.03,0.98,-2.52,-1.05
-0.02,-0.12,1.02,1.05,-2.52,-1.12
-0.01,-0.12,1.03,1.12,-2.59,-0.98
-0.02,-0.12,1.03,0.98,-2.38,-0.98
-0.01,-0.12,1.03,0.91,-2.52,-0.84
-0.01,-0.12,1.03,0.77,-2.45,-0.77
-0.01,-0.12,1.03,0.84,-2.38,-0.91
-0.01,-0.12,1.03,0.77,-2.45,-0.84
-0.01,-0.12,1.02,1.05,-2.45,-1.05
-0.01,-0.11,1.03,1.19,-2.52,-1.12
-0.01,-0.12,1.03,1.19,-2.52,-1.05
-0.01,-0.11,1.03,1.26,-2.45,-1.12
-0.01,-0.12,1.03,1.19,-2.52,-1.12
-0.01,-0.12,1.03,1.19,-2.45,-1.19
-0.01,-0.12,1.03,1.12,-2.38,-1.12
-0.01,-0.12,1.03,1.05,-2.52,-1.26
-0.01,-0.12,1.02,1.05,-2.38,-1.19
-0.01,-0.12,1.03,1.4,-2.38,-1.12
-0.01,-0.12,1.03,1.19,-2.38,-1.26
-0.02,-0.12,1.03,1.12,-2.45,-1.19
-0.01,-0.12,1.03,0.98,-2.52,-1.19
-0.02,-0.12,1.03,0.98,-2.45,-1.05
-0.02,-0.12,1.03,0.84,-2.45,-1.12
-0.02,-0.12,1.03,0.77,-2.38,-1.33
-0.02,-0.12,1.03,0.91,-2.59,-1.05
-0.02,-0.12,1.02,0.98,-2.45,-1.12
-0.02,-0.12,1.02,0.91,-2.45,-1.12
-0.02,-0.12,1.03,1.12,-2.66,-1.19
-0.01,-0.12,1.03,1.12,-2.52,-1.05
-0.01,-0.12,1.03,1.26,-2.66,-1.12
-0.02,-0.12,1.03,1.12,-2.52,-1.12
-0.02,-0.12,1.03,1.05,-2.66,-1.26
-0.02,-0.12,1.03,1.12,-2.52,-1.12
-0.01,-0.12,1.03,1.19,-2.45,-1.12
-0.01,-0.12,1.03,1.19,-2.38,-1.12
-0.01,-0.12,1.03,1.19,-2.38,-1.12
-0.01,-0.12,1.03,1.4,-2.31,-1.12
-0.01,-0.12,1.03,1.12,-2.38,-0.98
-0.01,-0.12,1.03,1.05,-2.45,-1.26
-0.01,-0.12,1.03,1.05,-2.45,-1.05
-0.02,-0.12,1.02,0.91,-2.45,-1.19
-0.01,-0.12,1.02,0.77,-2.52,-1.33
-0.02,-0.12,1.02,0.91,-2.59,-1.19
-0.01,-0.12,1.02,0.91,-2.52,-1.33
-0.01,-0.12,1.03,0.91,-2.59,-1.19
-0.02,-0.12,1.03,0.98,-2.59,-1.33
-0.01,-0.12,1.03,1.19,-2.45,-1.12
-0.01,-0.12,1.03,0.98,-2.38,-1.12
-0.01,-0.12,1.03,0.98,-2.31,-1.12
-0.01,-0.12,1.03,1.12,-2.38,-1.19
-0.01,-0.12,1.03,1.4,-2.45,-1.19
-0.02,-0.12,1.03,1.33,-2.52,-1.12
-0.02,-0.12,1.03,1.26,-2.59,-1.12
-0.01,-0.12,1.03,1.26,-2.66,-1.05
-0.01,-0.12,1.03,1.05,-2.66,-1.05
-0.02,-0.12,1.03,0.98,-2.38,-1.19
-0.01,-0.12,1.03,0.84,-2.52,-1.12
-0.02,-0.12,1.03,0.7,-2.38,-1.12
-0.02,-0.12,1.02,0.84,-2.38,-1.12
-0.02,-0.12,1.03,0.84,-2.38,-1.12
-0.01,-0.12,1.03,0.91,-2.45,-1.26
-0.01,-0.12,1.03,0.91,-2.52,-1.26
-0.02,-0.12,1.03,0.91,-2.52,-1.05
-0.02,-0.12,1.03,0.98,-2.66,-1.05
-0.01,-0.12,1.03,0.91,-2.59,-1.12
-0.01,-0.12,1.03,0.98,-2.52,-1.12
-0.02,-0.12,1.03,0.91,-2.45,-1.05
-0.02,-0.12,1.03,1.05,-2.52,-1.12
-0.02,-0.12,1.02,1.05,-2.45,-1.19
-0.01,-0.12,1.03,1.26,-2.52,-1.05
-0.02,-0.12,1.03,1.33,-2.52,-0.98
-0.02,-0.12,1.03,1.19,-2.52,-1.19
-0.01,-0.12,1.03,1.05,-2.52,-1.19
-0.01,-0.12,1.03,0.84,-2.45,-1.12
-0.01,-0.12,1.03,0.84,-2.59,-0.98
-0.01,-0.12,1.03,0.7,-2.45,-1.19
-0.01,-0.12,1.03,0.77,-2.45,-1.19
-0.01,-0.12,1.02,0.77,-2.52,-1.19
-0.01,-0.12,1.03,0.77,-2.52,-1.12
-0.01,-0.12,1.02,0.77,-2.52,-0.98
-0.01,-0.12,1.03,0.98,-2.52,-1.12
-0.02,-0.12,1.03,0.98,-2.52,-1.19
-0.01,-0.12,1.03,1.12,-2.45,-0.98
-0.01,-0.12,1.03,1.12,-2.52,-0.98
-0.02,-0.12,1.03,1.19,-2.38,-1.05
-0.01,-0.12,1.03,1.12,-2.45,-1.05
-0.02,-0.12,1.02,1.05,-2.45,-1.12
-0.01,-0.12,1.02,1.12,-2.45,-1.05
-0.01,-0.12,1.03,1.05,-2.52,-1.05
-0.02,-0.12,1.03,1.12,-2.45,-1.26
-0.01,-0.12,1.03,0.98,-2.52,-1.12
-0.01,-0.12,1.03,1.05,-2.45,-1.05
-0.02,-0.12,1.03,1.05,-2.38,-1.19
-0.01,-0.12,1.03,0.84,-2.45,-0.98
-0.01,-0.12,1.03,0.77,-2.52,-1.12
-0.01,-0.12,1.03,0.91,-2.52,-0.84
-0.02,-0.12,1.02,0.7,-2.66,-1.12
-0.02,-0.12,1.02,0.77,-2.59,-1.05
-0.01,-0.12,1.02,0.98,-2.66,-1.05
-0.02,-0.12,1.03,0.98,-2.66,-0.91
-0.02,-0.12,1.03,1.12,-2.66,-0.98
-0.02,-0.12,1.02,1.26,-2.8,-0.77
-0.02,-0.12,1.03,1.12,-2.73,-0.91
-0.02,-0.12,1.03,1.33,-2.52,-0.91
-0.02,-0.12,1.03,1.26,-2.66,-0.84
-0.02,-0.12,1.03,1.26,-2.59,-0.84
-0.02,-0.12,1.03,1.19,-2.59,-0.77
-0.02,-0.12,1.03,1.19,-2.45,-0.63
-0.01,-0.12,1.03,0.91,-2.45,-0.91
-0.01,-0.12,1.03,0.63,-2.38,-0.77
-0.01,-0.12,1.02,0.77,-2.59,-0.7
-0.01,-0.11,1.03,0.84,-2.59,-0.77
-0.01,-0.11,1.03,0.91,-2.8,-0.98
-0.01,-0.12,1.03,0.98,-2.52,-1.05
0,-0.11,1.03,1.05,-2.31,-1.12
-0.01,-0.11,1.03,1.19,-2.31,-1.19
-0.01,-0.11,1.03,1.26,-2.38,-1.33
-0.01,-0.11,1.03,1.26,-2.31,-1.47
-0.01,-0.11,1.03,1.33,-2.38,-1.54
-0.01,-0.12,1.03,1.4,-2.38,-1.47
-0.01,-0.12,1.03,1.4,-2.17,-1.33
-0.01,-0.12,1.03,1.19,-2.1,-1.47
-0.02,-0.12,1.03,1.19,-2.1,-1.47
-0.02,-0.12,1.03,1.05,-2.24,-1.47
-0.02,-0.12,1.03,0.98,-2.1,-1.68
-0.02,-0.12,1.03,0.91,-2.31,-1.33
-0.02,-0.12,1.03,0.77,-2.38,-1.33
-0.02,-0.12,1.03,0.91,-2.52,-1.19
-0.02,-0.12,1.03,0.77,-2.52,-1.19
-0.02,-0.12,1.02,0.77,-2.38,-1.12
-0.02,-0.12,1.03,0.98,-2.38,-1.12
-0.02,-0.12,1.03,1.05,-2.31,-1.12
-0.02,-0.12,1.03,0.98,-2.45,-1.19
-0.02,-0.12,1.03,1.12,-2.52,-1.05
-0.01,-0.12,1.03,1.12,-2.59,-1.19
-0.01,-0.12,1.03,1.19,-2.59,-1.12
-0.01,-0.12,1.03,1.05,-2.66,-1.12
-0.01,-0.12,1.03,1.4,-2.38,-1.05
-0.01,-0.11,1.03,1.26,-2.38,-0.91
-0.01,-0.12,1.03,1.19,-2.38,-1.05
-0.01,-0.12,1.03,1.05,-2.38,-1.26
-0.02,-0.12,1.03,1.12,-2.24,-1.12
-0.01,-0.12,1.03,1.12,-2.24,-1.33
-0.01,-0.12,1.03,0.84,-2.38,-1.05
-0.01,-0.12,1.03,0.7,-2.45,-1.33
-0.02,-0.12,1.03,0.84,-2.38,-1.19
-0.01,-0.12,1.03,0.56,-2.31,-1.4
-0.02,-0.12,1.03,0.56,-2.45,-1.12
-0.01,-0.12,1.03,0.49,-2.38,-1.61
-0.02,-0.12,1.02,0.84,-2.31,-1.26
-0.02,-0.12,1.02,0.77,-2.45,-1.26
-0.02,-0.12,1.02,1.12,-2.31,-1.19
-0.02,-0.12,1.02,1.12,-2.38,-1.19
-0.02,-0.12,1.03,1.26,-2.45,-1.19
-0.02,-0.12,1.03,1.26,-2.52,-0.91
-0.02,-0.12,1.03,1.26,-2.52,-1.05
-0.01,-0.12,1.03,1.26,-2.52,-1.12
-0.01,-0.12,1.03,1.26,-2.52,-1.12
-0.02,-0.12,1.03,1.19,-2.52,-1.12
-0.02,-0.12,1.03,1.33,-2.52,-1.19
-0.01,-0.12,1.03,1.12,-2.59,-1.12
-0.02,-0.12,1.03,1.05,-2.52,-1.19
-0.01,-0.12,1.03,0.98,-2.52,-1.05
-0.01,-0.12,1.03,0.84,-2.45,-0.98
-0.02,-0.12,1.03,0.7,-2.45,-1.12
-0.02,-0.11,1.03,0.77,-2.38,-1.12
-0.02,-0.12,1.03,0.77,-2.45,-1.12
-0.02,-0.12,1.03,0.7,-2.45,-0.91
-0.01,-0.12,1.02,0.84,-2.59,-1.19
-0.01,-0.12,1.03,0.84,-2.59,-1.12
-0.01,-0.12,1.03,1.12,-2.52,-0.91
-0.01,-0.12,1.03,1.19,-2.59,-1.12
-0.01,-0.12,1.03,1.26,-2.45,-0.98
-0.01,-0.12,1.02,1.26,-2.59,-1.19
-0.01,-0.12,1.03,1.19,-2.45,-1.05
-0.01,-0.12,1.03,1.05,-2.59,-1.26
-0.01,-0.12,1.03,1.26,-2.59,-1.12
-0.01,-0.12,1.03,1.19,-2.45,-1.26
-0.02,-0.12,1.03,1.19,-2.52,-1.05
-0.01,-0.12,1.03,0.98,-2.45,-1.12
-0.02,-0.12,1.03,1.05,-2.45,-1.12
-0.02,-0.12,1.03,0.98,-2.52,-1.12
-0.01,-0.12,1.03,0.84,-2.38,-1.26
-0.01,-0.12,1.03,0.91,-2.52,-1.19
-0.01,-0.12,1.03,0.98,-2.45,-1.05
-0.01,-0.12,1.03,0.77,-2.45,-1.19
-0.02,-0.12,1.03,0.7,-2.45,-1.05
-0.02,-0.12,1.03,0.7,-2.52,-1.12
-0.02,-0.12,1.02,0.84,-2.38,-1.26
-0.02,-0.12,1.02,0.91,-2.52,-1.12
-0.01,-0.12,1.02,0.98,-2.52,-1.12
-0.01,-0.12,1.03,1.19,-2.45,-0.91
-0.01,-0.12,1.03,1.26,-2.38,-1.19
-0.01,-0.12,1.03,1.26,-2.52,-1.05
-0.01,-0.12,1.03,1.33,-2.59,-1.19
-0.01,-0.12,1.03,1.33,-2.52,-1.05
-0.01,-0.12,1.03,1.26,-2.59,-1.4
-0.02,-0.12,1.03,1.19,-2.52,-1.19
-0.01,-0.12,1.03,1.12,-2.45,-1.4
-0.01,-0.12,1.03,1.05,-2.31,-1.12
-0.01,-0.12,1.03,0.91,-2.31,-1.12
-0.02,-0.12,1.03,1.19,-2.31,-1.26
-0.02,-0.11,1.03,1.05,-2.45,-1.26
-0.02,-0.12,1.03,1.19,-2.52,-1.19
-0.01,-0.12,1.03,0.98,-2.45,-1.12
-0.02,-0.12,1.03,1.05,-2.59,-1.05
-0.01,-0.12,1.03,0.98,-2.52,-1.26
-0.01,-0.12,1.03,0.84,-2.38,-1.26
-0.01,-0.12,1.03,0.77,-2.38,-1.12
-0.01,-0.12,1.03,0.77,-2.31,-1.26
-0.02,-0.12,1.02,0.91,-2.38,-1.26
-0.02,-0.12,1.02,0.91,-2.52,-1.19
-0.02,-0.12,1.02,0.98,-2.45,-1.33
-0.02,-0.12,1.02,1.05,-2.45,-1.19
-0.02,-0.12,1.03,1.12,-2.45,-1.33
-0.01,-0.12,1.03,1.19,-2.38,-1.05
-0.01,-0.12,1.03,1.12,-2.45,-1.05
-0.02,-0.12,1.03,1.12,-2.52,-1.05
-0.01,-0.12,1.03,1.12,-2.52,-1.19
-0.02,-0.12,1.03,0.91,-2.45,-1.05
-0.02,-0.12,1.03,1.26,-2.45,-0.84
-0.02,-0.12,1.03,1.12,-2.45,-0.98
-0.01,-0.12,1.03,1.26,-2.38,-0.98
-0.01,-0.12,1.03,1.19,-2.38,-1.19
-0.02,-0.12,1.03,1.12,-2.31,-1.19
-0.01,-0.12,1.03,0.98,-2.31,-1.26
-0.01,-0.12,1.03,0.84,-2.31,-1.19
-0.01,-0.12,1.03,0.63,-2.45,-1.33
-0.01,-0.12,1.03,0.63,-2.38,-1.33
-0.02,-0.12,1.02,0.77,-2.45,-1.12
-0.01,-0.12,1.02,0.91,-2.59,-1.12
-0.01,-0.12,1.02,1.05,-2.45,-1.19
-0.02,-0.12,1.02,1.33,-2.52,-1.33
-0.02,-0.12,1.03,0.84,-2.45,-1.19
-0.02,-0.12,1.03,0.98,-2.45,-1.26
-0.01,-0.12,1.03,0.77,-2.45,-1.12
-0.01,-0.12,1.03,0.84,-2.45,-1.33
-0.01,-0.12,1.03,0.91,-2.52,-1.19
-0.01,-0.12,1.03,0.91,-2.45,-1.05
-0.02,-0.12,1.03,0.84,-2.45,-1.19
-0.02,-0.12,1.03,1.12,-2.52,-1.05
-0.02,-0.12,1.03,1.12,-2.52,-1.12
-0.02,-0.12,1.03,1.19,-2.52,-1.26
-0.01,-0.12,1.03,1.19,-2.45,-1.05
-0.01,-0.12,1.03,1.26,-2.52,-1.05
-0.01,-0.12,1.03,1.19,-2.52,-1.05
-0.02,-0.12,1.03,1.12,-2.45,-1.19
-0.01,-0.12,1.03,1.05,-2.45,-1.26
-0.02,-0.12,1.03,1.05,-2.38,-1.05
-0.02,-0.12,1.03,0.98,-2.38,-1.19
-0.02,-0.12,1.03,0.98,-2.45,-0.98
-0.01,-0.12,1.03,0.84,-2.59,-1.33
-0.02,-0.12,1.03,1.12,-2.45,-1.19
-0.01,-0.12,1.03,0.98,-2.52,-1.12
-0.01,-0.12,1.03,1.05,-2.52,-1.05
-0.01,-0.12,1.03,0.84,-2.52,-1.26
-0.02,-0.12,1.03,1.05,-2.52,-1.12
-0.02,-0.12,1.02,0.84,-2.45,-1.33
-0.01,-0.12,1.03,0.98,-2.52,-1.26
-0.02,-0.12,1.03,1.12,-2.38,-1.19
-0.02,-0.12,1.03,1.12,-2.52,-1.26
-0.02,-0.12,1.03,1.19,-2.45,-1.05
-0.02,-0.12,1.03,1.19,-2.52,-1.26
-0.01,-0.12,1.03,1.12,-2.45,-1.12
-0.01,-0.12,1.03,1.12,-2.52,-1.05
-0.01,-0.12,1.03,1.12,-2.52,-1.05
-0.01,-0.12,1.02,1.05,-2.45,-1.26
-0.01,-0.12,1.03,0.98,-2.52,-1.26
-0.01,-0.12,1.02,1.12,-2.52,-1.12
-0.02,-0.12,1.03,1.19,-2.59,-1.33
-0.01,-0.12,1.03,1.12,-2.52,-1.12
-0.01,-0.12,1.03,1.12,-2.52,-1.12
-0.02,-0.12,1.03,1.12,-2.52,-1.12
-0.01,-0.12,1.03,1.12,-2.45,-1.05
-0.01,-0.12,1.03,1.19,-2.38,-1.12
-0.01,-0.12,1.03,1.05,-2.45,-1.19
-0.02,-0.12,1.02,0.98,-2.38,-1.12
-0.02,-0.12,1.02,1.12,-2.45,-1.26
-0.02,-0.12,1.03,1.19,-2.52,-1.19
-0.02,-0.12,1.02,1.12,-2.45,-1.33
-0.02,-0.12,1.03,0.98,-2.45,-0.84
-0.02,-0.12,1.03,1.05,-2.31,-1.05
-0.01,-0.12,1.03,0.84,-2.38,-1.05
-0.01,-0.12,1.03,0.98,-2.45,-1.26
-0.01,-0.12,1.03,0.84,-2.38,-1.12
-0.02,-0.12,1.03,1.05,-2.45,-1.12
-0.01,-0.12,1.03,1.05,-2.52,-1.05
-0.02,-0.12,1.03,0.91,-2.59,-1.12
-0.02,-0.12,1.03,0.98,-2.52,-1.12
-0.02,-0.12,1.03,0.91,-2.52,-1.26
-0.01,-0.12,1.03,0.98,-2.52,-1.12
-0.01,-0.12,1.02,1.05,-2.45,-1.05
-0.01,-0.12,1.03,1.19,-2.38,-1.19
-0.02,-0.12,1.03,1.26,-2.45,-1.12
-0.01,-0.12,1.03,1.19,-2.45,-1.26
-0.02,-0.12,1.03,1.26,-2.52,-1.19
-0.01,-0.12,1.03,1.05,-2.52,-1.26
-0.01,-0.12,1.03,0.98,-2.45,-1.19
-0.01,-0.12,1.03,1.05,-2.52,-1.05
-0.01,-0.12,1.03,0.98,-2.45,-1.26
-0.02,-0.12,1.03,0.98,-2.38,-1.26
-0.02,-0.12,1.03,1.12,-2.45,-0.91
-0.02,-0.12,1.03,0.91,-2.38,-1.12
-0.02,-0.12,1.03,0.84,-2.59,-1.33
-0.02,-0.12,1.03,0.91,-2.45,-1.26
-0.02,-0.12,1.03,0.98,-2.45,-1.19
-0.02,-0.12,1.03,1.12,-2.52,-1.05
-0.01,-0.12,1.03,1.05,-2.52,-1.26
-0.02,-0.12,1.03,1.12,-2.38,-1.05
-0.01,-0.12,1.03,0.98,-2.38,-1.12
-0.02,-0.12,1.03,0.91,-2.38,-1.05
-0.01,-0.12,1.03,0.98,-2.45,-1.19
-0.01,-0.12,1.03,1.12,-2.52,-0.98
-0.01,-0.12,1.02,1.12,-2.52,-0.91
-0.01,-0.12,1.03,1.26,-2.52,-0.98
-0.01,-0.12,1.03,1.26,-2.59,-0.98
-0.01,-0.12,1.03,1.19,-2.66,-1.26
-0.01,-0.12,1.03,1.12,-2.52,-1.19
-0.01,-0.12,1.03,0.98,-2.52,-1.05
-0.01,-0.12,1.03,0.98,-2.45,-1.12
-0.02,-0.12,1.03,0.91,-2.38,-1.19
-0.02,-0.12,1.03,0.91,-2.31,-1.19
-0.01,-0.12,1.03,0.98,-2.45,-1.26
-0.02,-0.12,1.03,1.05,-2.45,-1.26
-0.01,-0.12,1.03,1.05,-2.38,-1.19
-0.02,-0.12,1.03,1.05,-2.45,-1.05
-0.02,-0.12,1.03,1.12,-2.45,-0.91
-0.02,-0.12,1.03,0.91,-2.52,-1.26
-0.02,-0.12,1.03,0.98,-2.45,-1.05
-0.02,-0.12,1.03,1.05,-2.38,-0.98
-0.02,-0.12,1.03,0.98,-2.45,-1.12
-0.01,-0.12,1.03,0.98,-2.45,-1.12
-0.02,-0.12,1.03,1.05,-2.59,-1.05
-0.01,-0.12,1.03,1.12,-2.52,-0.98
-0.01,-0.12,1.03,0.91,-2.59,-1.12
-0.01,-0.12,1.02,0.98,-2.45,-1.26
-0.01,-0.12,1.03,1.26,-2.52,-1.05
-0.01,-0.12,1.02,1.12,-2.52,-1.26
-0.02,-0.12,1.03,1.12,-2.52,-1.26
-0.01,-0.12,1.03,1.12,-2.45,-1.19
-0.01,-0.11,1.03,1.26,-2.38,-1.05
-0.01,-0.12,1.03,1.05,-2.38,-1.26
-0.02,-0.12,1.03,1.05,-2.38,-1.19
-0.02,-0.12,1.03,0.98,-2.45,-1.26
-0.01,-0.12,1.03,0.98,-2.59,-1.19
-0.01,-0.12,1.03,1.05,-2.52,-1.05
-0.01,-0.12,1.03,0.91,-2.52,-0.98
-0.01,-0.12,1.03,0.91,-2.52,-1.26
-0.02,-0.12,1.03,0.91,-2.45,-1.19
-0.02,-0.12,1.03,0.91,-2.38,-1.19
-0.02,-0.12,1.03,0.91,-2.31,-1.19
-0.01,-0.12,1.03,0.91,-2.24,-1.19
-0.02,-0.12,1.03,0.84,-2.31,-1.12
-0.02,-0.12,1.02,0.84,-2.38,-1.19
-0.02,-0.12,1.02,1.12,-2.45,-1.05
-0.02,-0.12,1.03,1.12,-2.52,-1.33
-0.02,-0.12,1.03,1.19,-2.59,-1.05
-0.02,-0.12,1.03,1.19,-2.59,-0.98
-0.01,-0.12,1.03,1.05,-2.59,-1.05
-0.01,-0.12,1.03,0.98,-2.52,-1.19
-0.02,-0.12,1.03,1.05,-2.45,-1.26
-0.01,-0.12,1.03,1.05,-2.45,-1.33
-0.01,-0.12,1.03,1.12,-2.45,-1.26
-0.01,-0.12,1.03,1.05,-2.45,-1.26
-0.01,-0.12,1.03,1.12,-2.45,-1.33
-0.02,-0.12,1.03,0.98,-2.45,-1.19
-0.02,-0.12,1.03,1.12,-2.38,-0.98
-0.01,-0.12,1.03,0.91,-2.45,-1.12
-0.01,-0.12,1.03,0.77,-2.45,-1.33
-0.01,-0.12,1.03,0.91,-2.38,-1.26
-0.01,-0.12,1.03,1.05,-2.45,-1.12
-0.01,-0.12,1.03,1.05,-2.59,-1.12
-0.02,-0.12,1.03,1.05,-2.45,-1.26
-0.01,-0.12,1.03,1.12,-2.38,-1.05
-0.02,-0.12,1.03,1.05,-2.45,-1.05
-0.02,-0.12,1.03,1.12,-2.38,-1.05
-0.02,-0.12,1.02,1.12,-2.52,-1.26
-0.01,-0.12,1.03,1.12,-2.38,-1.26
-0.01,-0.12,1.03,1.19,-2.45,-1.19
-0.02,-0.12,1.03,1.33,-2.45,-0.98
-0.02,-0.12,1.03,1.12,-2.52,-1.05
-0.02,-0.12,1.03,1.05,-2.45,-1.26
-0.02,-0.12,1.03,0.98,-2.52,-1.12
-0.01,-0.12,1.03,0.98,-2.52,-0.98
-0.01,-0.12,1.03,0.84,-2.52,-1.12
-0.01,-0.12,1.03,0.98,-2.52,-1.26
-0.01,-0.12,1.03,0.98,-2.52,-1.05
-0.02,-0.12,1.03,1.05,-2.52,-1.26
-0.01,-0.12,1.03,0.84,-2.52,-1.12
-0.02,-0.12,1.03,0.98,-2.45,-1.19
-0.02,-0.12,1.03,1.05,-2.52,-1.26
-0.02,-0.12,1.03,0.98,-2.52,-1.26
-0.01,-0.12,1.03,1.05,-2.52,-1.19
-0.01,-0.12,1.03,1.19,-2.38,-1.05
-0.01,-0.12,1.03,1.19,-2.38,-1.05
-0.02,-0.12,1.03,1.12,-2.52,-1.12
-0.02,-0.12,1.02,1.12,-2.45,-1.19
-0.02,-0.12,1.03,1.05,-2.59,-1.05
-0.02,-0.12,1.03,1.05,-2.45,-1.33
-0.02,-0.12,1.03,1.19,-2.59,-1.19
-0.01,-0.12,1.03,1.12,-2.52,-1.12
-0.01,-0.12,1.03,1.05,-2.45,-1.05
-0.01,-0.12,1.03,0.84,-2.52,-1.19
-0.01,-0.12,1.03,0.84,-2.59,-1.12
-0.01,-0.12,1.03,0.84,-2.38,-1.12
-0.02,-0.12,1.03,1.05,-2.52,-0.91
-0.01,-0.12,1.03,1.19,-2.66,-1.12
-0.01,-0.12,1.03,1.19,-2.45,-1.33
-0.01,-0.12,1.03,1.33,-2.45,-1.12
-0.02,-0.12,1.03,1.12,-2.45,-1.12
-0.02,-0.12,1.03,1.19,-2.31,-1.33
-0.01,-0.12,1.03,0.98,-2.38,-1.26
-0.01,-0.12,1.03,0.98,-2.38,-1.05
-0.01,-0.12,1.03,0.91,-2.45,-1.19
-0.02,-0.12,1.03,1.05,-2.45,-1.05
-0.02,-0.12,1.02,1.12,-2.38,-1.26
-0.02,-0.12,1.03,1.12,-2.45,-1.26
-0.01,-0.12,1.03,1.05,-2.52,-1.33
-0.02,-0.12,1.03,1.12,-2.38,-1.26
-0.01,-0.12,1.03,0.98,-2.31,-1.05
-0.02,-0.12,1.03,0.98,-2.52,-1.12
-0.02,-0.12,1.03,0.84,-2.45,-1.26
-0.02,-0.12,1.03,0.91,-2.38,-1.19
-0.02,-0.12,1.02,1.05,-2.45,-0.98
-0.01,-0.12,1.03,0.98,-2.38,-1.19
-0.01,-0.12,1.03,1.12,-2.52,-1.26
-0.02,-0.12,1.03,1.05,-2.52,-1.26
-0.01,-0.12,1.03,1.05,-2.59,-1.12
-0.01,-0.12,1.03,1.05,-2.45,-1.19
-0.01,-0.12,1.03,1.19,-2.38,-1.12
-0.01,-0.12,1.03,1.12,-2.45,-1.12
-0.01,-0.12,1.03,1.12,-2.38,-1.19
-0.01,-0.12,1.03,1.26,-2.31,-1.12
-0.02,-0.12,1.03,0.98,-2.24,-1.47
-0.01,-0.12,1.03,0.98,-2.38,-1.26
-0.01,-0.12,1.03,0.84,-2.38,-1.19
-0.01,-0.12,1.02,0.98,-2.38,-1.12
-0.02,-0.12,1.02,0.84,-2.66,-1.26
-0.02,-0.11,1.03,0.98,-2.59,-1.19
-0.02,-0.12,1.03,1.12,-2.52,-1.33
-0.02,-0.12,1.03,1.12,-2.52,-1.26
-0.02,-0.12,1.03,1.05,-2.45,-1.26
-0.02,-0.12,1.03,1.12,-2.45,-1.12
-0.02,-0.12,1.03,0.98,-2.31,-1.19
-0.01,-0.12,1.03,1.05,-2.31,-1.05
-0.02,-0.12,1.02,0.98,-2.45,-0.98
-0.01,-0.12,1.02,0.98,-2.52,-0.91
-0.01,-0.12,1.02,1.05,-2.59,-0.98
-0.01,-0.12,1.02,1.19,-2.59,-1.05
-0.01,-0.12,1.03,1.19,-2.59,-1.05
-0.01,-0.12,1.03,1.19,-2.45,-1.19
-0.01,-0.12,1.03,1.05,-2.52,-1.26
-0.01,-0.12,1.03,0.98,-2.31,-1.12
-0.01,-0.12,1.03,1.19,-2.31,-1.26
-0.01,-0.12,1.03,0.84,-2.31,-1.19
-0.01,-0.12,1.03,0.98,-2.31,-0.98
-0.01,-0.12,1.03,0.98,-2.38,-1.12
-0.02,-0.12,1.02,1.05,-2.38,-1.26
-0.02,-0.12,1.03,1.12,-2.52,-1.26
-0.02,-0.12,1.02,1.19,-2.45,-1.12
-0.02,-0.12,1.03,0.98,-2.66,-1.33
-0.02,-0.12,1.03,1.05,-2.52,-1.05
-0.02,-0.12,1.03,0.98,-2.45,-1.12
-0.02,-0.12,1.03,0.84,-2.45,-1.19
-0.02,-0.12,1.03,0.84,-2.45,-1.26
-0.02,-0.12,1.02,0.98,-2.38,-1.05
-0.02,-0.12,1.03,1.12,-2.38,-1.12
-0.02,-0.12,1.03,1.12,-2.45,-1.19
-0.02,-0.12,1.03,1.19,-2.45,-1.19
-0.02,-0.12,1.03,1.12,-2.45,-1.33
-0.02,-0.12,1.03,1.12,-2.52,-1.26
-0.02,-0.12,1.03,0.98,-2.52,-1.12
-0.01,-0.12,1.03,1.12,-2.52,-0.98
-0.02,-0.12,1.03,1.12,-2.45,-1.12
-0.02,-0.12,1.03,1.12,-2.45,-1.19
-0.01,-0.12,1.03,0.98,-2.52,-1.12
-0.01,-0.12,1.03,1.19,-2.45,-1.19
-0.01,-0.12,1.03,1.05,-2.52,-1.12
-0.01,-0.12,1.03,1.12,-2.45,-1.26
-0.01,-0.12,1.03,0.91,-2.52,-1.12
-0.01,-0.12,1.03,1.12,-2.52,-1.12
-0.01,-0.12,1.03,1.05,-2.52,-1.19
-0.01,-0.11,1.03,1.12,-2.52,-1.4
-0.02,-0.12,1.03,1.12,-2.45,-1.26
-0.02,-0.12,1.03,1.12,-2.52,-1.26
-0.02,-0.12,1.03,1.26,-2.45,-1.33
-0.01,-0.12,1.03,1.05,-2.38,-1.26
-0.01,-0.12,1.03,0.98,-2.45,-1.19
-0.02,-0.12,1.03,0.98,-2.52,-1.19
-0.02,-0.12,1.03,1.05,-2.52,-1.19
-0.02,-0.12,1.03,1.05,-2.52,-1.05
-0.02,-0.12,1.03,0.98,-2.52,-1.19
-0.02,-0.12,1.03,0.98,-2.45,-1.12
-0.02,-0.12,1.03,1.12,-2.38,-1.12
-0.02,-0.12,1.03,1.05,-2.31,-1.19
-0.02,-0.12,1.03,0.84,-2.38,-1.05
-0.02,-0.12,1.03,0.84,-2.45,-1.19
-0.02,-0.12,1.03,0.84,-2.45,-0.98
-0.01,-0.12,1.03,0.84,-2.45,-1.19
-0.02,-0.12,1.02,0.84,-2.66,-1.12
-0.02,-0.12,1.03,1.05,-2.52,-0.98
-0.02,-0.12,1.03,1.12,-2.59,-0.98
-0.01,-0.12,1.03,1.12,-2.52,-0.98
-0.01,-0.12,1.03,1.05,-2.52,-1.26
-0.01,-0.12,1.03,1.05,-2.45,-0.98
-0.01,-0.12,1.03,1.12,-2.45,-1.12
-0.02,-0.12,1.03,1.12,-2.38,-1.05
-0.01,-0.12,1.03,1.12,-2.52,-1.12
-0.02,-0.12,1.03,0.98,-2.52,-1.12
-0.02,-0.12,1.02,1.19,-2.52,-1.05
-0.02,-0.12,1.03,0.98,-2.52,-1.26
-0.02,-0.12,1.03,0.98,-2.52,-1.12
-0.01,-0.12,1.03,0.98,-2.38,-1.19
-0.02,-0.12,1.03,0.91,-2.45,-1.19
-0.02,-0.12,1.03,0.91,-2.45,-1.05
-0.01,-0.12,1.03,0.91,-2.38,-1.05
-0.02,-0.12,1.03,0.98,-2.52,-1.05
-0.02,-0.12,1.03,0.91,-2.45,-1.12
-0.02,-0.12,1.03,0.91,-2.45,-0.91
-0.02,-0.12,1.03,0.98,-2.38,-0.77
-0.02,-0.12,1.03,0.84,-2.52,-0.77
-0.02,-0.12,1.02,1.05,-2.59,-0.63
-0.01,-0.12,1.02,1.12,-2.59,-0.91
-0.02,-0.12,1.03,1.05,-2.59,-0.77
-0.02,-0.12,1.03,0.98,-2.52,-0.98
-0.01,-0.12,1.03,0.98,-2.45,-1.05
-0.01,-0.12,1.03,0.84,-2.45,-1.05
-0.01,-0.12,1.03,0.98,-2.38,-1.12
-0.01,-0.12,1.03,0.98,-2.45,-1.05
-0.01,-0.12,1.03,1.12,-2.45,-0.91
-0.01,-0.12,1.03,0.91,-2.59,-1.12
-0.01,-0.12,1.03,0.98,-2.52,-1.12
-0.02,-0.12,1.03,0.98,-2.59,-1.05
-0.02,-0.12,1.03,1.05,-2.52,-0.98
-0.02,-0.12,1.03,0.91,-2.45,-1.26
-0.02,-0.12,1.03,1.05,-2.59,-1.05
-0.01,-0.12,1.03,0.98,-2.52,-0.91
-0.02,-0.12,1.03,1.05,-2.45,-1.05
-0.02,-0.12,1.03,1.05,-2.52,-1.12
-0.02,-0.12,1.03,1.05,-2.52,-1.05
-0.01,-0.12,1.03,1.19,-2.45,-1.12
-0.02,-0.12,1.03,1.19,-2.59,-1.12
-0.01,-0.12,1.03,1.12,-2.59,-0.98
-0.02,-0.12,1.03,1.19,-2.52,-1.12
-0.02,-0.12,1.03,0.98,-2.59,-0.84
-0.02,-0.12,1.03,0.91,-2.52,-1.12
-0.02,-0.12,1.03,0.84,-2.45,-1.26
-0.01,-0.12,1.03,0.98,-2.38,-0.98
-0.01,-0.12,1.03,1.05,-2.31,-0.91
-0.02,-0.12,1.03,1.05,-2.38,-0.98
-0.02,-0.12,1.03,1.12,-2.45,-1.19
-0.02,-0.12,1.03,1.05,-2.59,-1.12
-0.02,-0.12,1.03,0.98,-2.45,-0.91
-0.01,-0.12,1.03,0.84,-2.52,-1.12
-0.01,-0.12,1.03,0.7,-2.59,-1.05
-0.01,-0.12,1.02,0.91,-2.52,-1.19
-0.01,-0.12,1.03,0.91,-2.59,-1.19
-0.01,-0.12,1.03,0.98,-2.59,-1.12
-0.02,-0.12,1.02,1.12,-2.52,-1.12
-0.02,-0.12,1.03,1.12,-2.45,-1.19
-0.02,-0.12,1.03,1.26,-2.52,-1.33
-0.02,-0.12,1.03,1.19,-2.45,-1.12
-0.02,-0.12,1.03,1.26,-2.38,-1.26
-0.01,-0.12,1.03,1.19,-2.38,-1.19
-0.01,-0.12,1.02,1.19,-2.45,-1.05
-0.01,-0.12,1.03,1.12,-2.52,-1.19
-0.02,-0.12,1.02,1.19,-2.52,-0.98
-0.02,-0.12,1.03,1.19,-2.59,-1.05
-0.02,-0.12,1.03,1.4,-2.59,-1.12
-0.01,-0.12,1.03,1.33,-2.59,-1.19
-0.02,-0.12,1.03,0.98,-2.66,-1.33
-0.01,-0.12,1.03,0.98,-2.66,-1.33
-0.01,-0.12,1.03,0.91,-2.59,-1.19
-0.01,-0.12,1.03,0.91,-2.59,-1.12
-0.01,-0.12,1.03,0.98,-2.59,-1.26
-0.02,-0.12,1.02,1.05,-2.73,-1.26
-0.01,-0.12,1.02,1.19,-2.59,-1.05
-0.01,-0.12,1.03,1.26,-2.45,-0.91
-0.01,-0.12,1.03,1.4,-2.45,-0.84
-0.01,-0.12,1.03,1.26,-2.52,-1.12
-0.01,-0.12,1.03,1.33,-2.59,-1.05
-0.01,-0.12,1.03,1.33,-2.45,-1.19
-0.02,-0.12,1.03,1.19,-2.45,-1.19
-0.02,-0.12,1.03,1.12,-2.52,-1.12
-0.02,-0.12,1.03,1.12,-2.52,-1.26
-0.02,-0.12,1.03,1.05,-2.52,-1.19
-0.02,-0.12,1.03,1.05,-2.52,-1.19
-0.01,-0.12,1.03,0.91,-2.52,-1.19
-0.01,-0.12,1.03,0.77,-2.66,-1.26
-0.01,-0.12,1.03,0.77,-2.45,-1.19
-0.01,-0.12,1.03,0.91,-2.45,-1.12
-0.02,-0.12,1.02,0.91,-2.38,-1.19
-0.02,-0.12,1.02,0.98,-2.38,-1.12
-0.02,-0.12,1.03,1.12,-2.31,-1.12
-0.02,-0.12,1.03,1.05,-2.38,-1.19
-0.02,-0.12,1.03,1.05,-2.45,-1.05
-0.01,-0.12,1.03,1.05,-2.45,-1.26
-0.01,-0.12,1.03,1.19,-2.38,-1.19
-0.02,-0.12,1.03,1.12,-2.52,-1.12
-0.01,-0.12,1.03,1.19,-2.52,-1.47
-0.01,-0.11,1.03,1.26,-2.52,-1.12
-0.02,-0.11,1.03,1.4,-2.52,-1.12
-0.02,-0.12,1.03,1.33,-2.45,-1.19
-0.01,-0.12,1.03,1.26,-2.38,-1.19
-0.01,-0.12,1.03,1.05,-2.45,-1.19
-0.01,-0.13,1.03,0.91,-2.31,-1.12
-0.01,-0.13,1.03,0.63,-2.38,-1.33
-0.01,-0.12,1.03,0.63,-2.45,-1.19
-0.01,-0.12,1.03,0.49,-2.38,-1.12
-0.02,-0.12,1.02,0.77,-2.38,-1.19
-0.02,-0.12,1.02,0.7,-2.59,-1.33
-0.02,-0.12,1.02,1.05,-2.52,-1.19
-0.02,-0.12,1.03,1.19,-2.38,-1.12
-0.01,-0.12,1.03,1.26,-2.52,-1.05
-0.02,-0.12,1.03,1.4,-2.45,-1.12
-0.01,-0.12,1.03,1.33,-2.45,-1.19
-0.01,-0.12,1.03,1.12,-2.59,-1.05
-0.02,-0.12,1.03,1.12,-2.52,-1.12
-0.02,-0.12,1.03,0.98,-2.59,-1.33
-0.01,-0.12,1.03,1.05,-2.59,-1.4
-0.02,-0.12,1.02,1.12,-2.59,-1.26
-0.02,-0.12,1.03,1.19,-2.52,-1.19
-0.01,-0.12,1.03,0.98,-2.45,-1.19
-0.01,-0.12,1.03,0.98,-2.38,-1.26
-0.01,-0.12,1.03,0.77,-2.38,-1.12
-0.02,-0.12,1.03,0.84,-2.45,-1.12
-0.02,-0.12,1.03,0.84,-2.45,-1.12
-0.01,-0.12,1.03,0.77,-2.45,-0.98
-0.02,-0.12,1.02,0.91,-2.45,-1.05
-0.02,-0.12,1.02,0.98,-2.45,-1.05
-0.01,-0.12,1.03,1.19,-2.52,-1.33
-0.01,-0.12,1.02,1.19,-2.52,-1.12
-0.01,-0.12,1.03,1.12,-2.52,-1.26
-0.01,-0.12,1.03,1.26,-2.45,-1.05
-0.01,-0.12,1.03,1.12,-2.52,-1.19
-0.02,-0.12,1.03,1.26,-2.45,-1.19
-0.01,-0.12,1.03,1.05,-2.45,-1.19
-0.02,-0.12,1.03,1.19,-2.52,-1.12
-0.01,-0.12,1.03,0.98,-2.38,-1.26
-0.02,-0.12,1.03,1.05,-2.45,-1.19
-0.02,-0.12,1.03,0.98,-2.45,-1.26
-0.02,-0.12,1.03,1.05,-2.45,-1.19
-0.02,-0.12,1.03,1.12,-2.45,-1.12
-0.02,-0.12,1.03,1.05,-2.52,-1.12
-0.02,-0.12,1.03,0.98,-2.45,-0.98
-0.02,-0.12,1.03,0.91,-2.45,-1.05
-0.02,-0.12,1.03,1.05,-2.59,-0.98
-0.01,-0.12,1.03,1.05,-2.52,-1.12
-0.01,-0.12,1.03,0.91,-2.45,-1.19
-0.01,-0.12,1.03,0.98,-2.45,-1.19
-0.01,-0.12,1.03,1.05,-2.31,-1.12
-0.02,-0.12,1.03,0.84,-2.38,-1.05
-0.02,-0.12,1.02,1.05,-2.31,-0.84
-0.01,-0.12,1.02,1.12,-2.45,-1.12
-0.01,-0.12,1.02,1.19,-2.73,-1.19
-0.01,-0.12,1.03,1.33,-2.73,-1.12
-0.01,-0.12,1.04,1.19,-2.59,-1.19
-0.01,-0.11,1.03,1.19,-2.45,-1.12
-0.02,-0.12,1.03,1.12,-2.45,-1.19
-0.02,-0.12,1.03,1.12,-2.31,-1.26
-0.02,-0.12,1.03,1.05,-2.38,-1.4
-0.02,-0.12,1.03,0.91,-2.31,-1.33
-0.02,-0.12,1.02,0.91,-2.38,-1.4
-0.02,-0.12,1.02,0.84,-2.38,-1.33
-0.02,-0.12,1.03,0.77,-2.45,-1.33
-0.02,-0.12,1.03,0.91,-2.52,-1.05
-0.02,-0.12,1.03,0.98,-2.38,-1.19
-0.02,-0.12,1.03,0.84,-2.52,-0.98
-0.02,-0.12,1.03,0.84,-2.45,-1.05
-0.02,-0.12,1.02,1.12,-2.45,-0.91
-0.01,-0.12,1.02,1.12,-2.59,-0.98
-0.01,-0.12,1.03,1.33,-2.59,-0.98
-0.01,-0.12,1.02,1.26,-2.52,-1.05
-0.01,-0.12,1.03,1.33,-2.59,-1.12
-0.01,-0.12,1.03,1.26,-2.52,-1.26
-0.02,-0.11,1.03,1.12,-2.45,-1.05
-0.01,-0.12,1.03,1.19,-2.38,-1.19
-0.01,-0.12,1.03,1.05,-2.31,-1.4
-0.01,-0.12,1.03,1.05,-2.45,-1.26
-0.01,-0.12,1.03,1.05,-2.31,-1.33
-0.01,-0.12,1.03,0.98,-2.38,-1.19
-0.02,-0.12,1.03,0.84,-2.38,-1.12
-0.02,-0.12,1.03,0.84,-2.45,-1.19
-0.02,-0.12,1.03,0.77,-2.38,-1.26
-0.02,-0.12,1.03,0.84,-2.52,-1.33
-0.02,-0.12,1.02,0.84,-2.52,-1.12
-0.01,-0.12,1.02,0.98,-2.45,-1.26
-0.02,-0.12,1.02,1.12,-2.45,-1.12
-0.02,-0.12,1.02,1.19,-2.52,-1.05
-0.02,-0.12,1.03,1.26,-2.59,-1.12
-0.02,-0.12,1.03,1.26,-2.45,-0.98
-0.01,-0.12,1.03,1.12,-2.52,-0.98
-0.02,-0.12,1.03,1.12,-2.52,-1.12
-0.02,-0.12,1.03,1.19,-2.52,-1.19
-0.02,-0.12,1.03,1.12,-2.45,-1.26
-0.02,-0.12,1.03,1.12,-2.52,-1.26
-0.02,-0.12,1.03,1.05,-2.52,-1.19
-0.01,-0.12,1.03,0.98,-2.45,-1.05
-0.01,-0.12,1.03,0.98,-2.38,-1.26
-0.01,-0.12,1.03,0.91,-2.31,-1.19
-0.01,-0.12,1.03,0.98,-2.31,-1.05
-0.02,-0.12,1.03,0.84,-2.45,-1.05
-0.01,-0.12,1.03,0.77,-2.31,-1.26
-0.01,-0.12,1.03,0.98,-2.38,-1.19
-0.02,-0.12,1.03,0.91,-2.45,-1.12
-0.02,-0.12,1.03,0.91,-2.45,-1.19
-0.01,-0.12,1.03,1.05,-2.38,-1.19
-0.02,-0.12,1.03,1.05,-2.38,-1.26
-0.02,-0.12,1.03,1.12,-2.38,-1.19
-0.02,-0.12,1.02,1.12,-2.38,-1.33
-0.02,-0.12,1.03,1.19,-2.45,-1.05
-0.02,-0.12,1.03,1.26,-2.38,-1.12
-0.02,-0.12,1.03,1.26,-2.52,-1.05
-0.02,-0.12,1.03,1.26,-2.52,-1.12
-0.01,-0.12,1.03,1.19,-2.38,-1.26
-0.02,-0.12,1.03,1.19,-2.52,-1.19
-0.01,-0.12,1.03,1.19,-2.45,-1.12
-0.01,-0.12,1.03,1.19,-2.52,-1.19
-0.02,-0.12,1.03,1.19,-2.59,-0.98
-0.02,-0.12,1.03,1.05,-2.45,-1.05
-0.02,-0.12,1.03,0.84,-2.38,-1.12
-0.02,-0.12,1.03,0.98,-2.45,-1.19
-0.01,-0.12,1.02,0.91,-2.31,-1.05
-0.02,-0.12,1.03,1.05,-2.38,-1.19
-0.02,-0.12,1.02,0.91,-2.38,-1.26
-0.02,-0.12,1.03,0.98,-2.38,-0.98
-0.02,-0.12,1.02,0.98,-2.52,-1.05
-0.01,-0.12,1.03,0.91,-2.52,-1.05
-0.01,-0.12,1.03,1.12,-2.59,-1.19
-0.02,-0.12,1.03,1.05,-2.59,-1.05
-0.01,-0.12,1.03,1.12,-2.52,-1.05
-0.01,-0.12,1.03,1.19,-2.38,-1.12
-0.01,-0.12,1.03,1.19,-2.45,-1.19
-0.02,-0.12,1.03,1.19,-2.38,-1.05
-0.02,-0.12,1.03,1.12,-2.52,-1.12
-0.01,-0.12,1.03,1.12,-2.52,-1.19
-0.01,-0.12,1.03,0.98,-2.38,-1.33
-0.02,-0.12,1.02,0.98,-2.45,-1.26
-0.02,-0.12,1.03,1.12,-2.31,-1.19
-0.01,-0.12,1.03,0.98,-2.45,-1.33
-0.01,-0.12,1.03,1.12,-2.45,-1.26
-0.02,-0.12,1.03,1.12,-2.45,-1.05
-0.02,-0.12,1.03,0.98,-2.45,-1.26
-0.02,-0.12,1.03,0.98,-2.45,-1.12
-0.02,-0.12,1.03,0.91,-2.52,-1.19
-0.02,-0.12,1.03,0.98,-2.45,-0.98
-0.01,-0.12,1.03,1.12,-2.52,-1.19
-0.02,-0.12,1.02,0.98,-2.52,-1.05
-0.02,-0.12,1.03,1.19,-2.38,-1.12
-0.02,-0.12,1.03,1.19,-2.45,-0.91
-0.02,-0.12,1.03,1.12,-2.38,-1.12
-0.01,-0.12,1.03,1.12,-2.52,-1.12
-0.01,-0.12,1.03,1.12,-2.45,-1.12
-0.02,-0.12,1.02,1.12,-2.59,-1.12
-0.02,-0.12,1.03,1.05,-2.52,-1.12
-0.01,-0.12,1.03,1.12,-2.52,-0.98
-0.01,-0.12,1.03,0.98,-2.59,-1.26
-0.01,-0.12,1.03,0.98,-2.45,-1.05
-0.01,-0.12,1.03,0.98,-2.45,-1.19
-0.01,-0.12,1.03,0.98,-2.52,-1.12
-0.01,-0.12,1.03,0.91,-2.31,-1.12
-0.02,-0.12,1.03,0.98,-2.45,-0.98
-0.02,-0.12,1.02,0.84,-2.45,-1.12
-0.01,-0.12,1.02,1.05,-2.45,-1.19
-0.02,-0.12,1.03,1.12,-2.52,-1.12
-0.02,-0.12,1.03,1.19,-2.59,-0.98
-0.02,-0.12,1.03,0.98,-2.59,-1.12
-0.01,-0.12,1.03,1.05,-2.52,-1.12
-0.01,-0.12,1.03,1.05,-2.45,-0.98
-0.02,-0.12,1.03,1.12,-2.59,-1.47
-0.02,-0.12,1.02,1.05,-2.52,-1.05
-0.02,-0.12,1.03,1.12,-2.52,-1.05
-0.02,-0.12,1.03,0.98,-2.59,-1.12
-0.02,-0.12,1.03,0.91,-2.52,-1.26
-0.02,-0.12,1.03,1.05,-2.52,-1.26
-0.01,-0.12,1.03,1.05,-2.59,-0.98
-0.02,-0.12,1.03,1.05,-2.52,-1.19
-0.02,-0.12,1.03,0.77,-2.45,-1.12
-0.02,-0.12,1.03,0.84,-2.52,-0.91
-0.02,-0.12,1.03,0.98,-2.45,-1.05
-0.02,-0.12,1.03,1.05,-2.45,-1.12
-0.01,-0.12,1.03,1.05,-2.52,-1.05
-0.01,-0.12,1.03,0.98,-2.52,-1.12
-0.01,-0.12,1.03,1.05,-2.45,-1.05
-0.01,-0.12,1.03,1.05,-2.45,-1.05
-0.01,-0.12,1.03,1.05,-2.59,-0.98
-0.01,-0.12,1.03,0.98,-2.52,-1.26
-0.02,-0.12,1.03,0.98,-2.52,-1.26
-0.02,-0.12,1.03,1.05,-2.45,-1.12
-0.02,-0.12,1.03,1.12,-2.52,-1.19
-0.02,-0.12,1.03,1.12,-2.45,-1.19
-0.02,-0.12,1.03,1.12,-2.45,-1.12
-0.02,-0.12,1.03,1.12,-2.52,-1.26
-0.02,-0.12,1.03,1.12,-2.52,-1.12
-0.02,-0.12,1.03,1.05,-2.45,-1.12
-0.02,-0.12,1.03,0.91,-2.59,-1.26
-0.01,-0.12,1.03,1.05,-2.59,-0.91
-0.02,-0.12,1.03,0.98,-2.59,-1.05
-0.01,-0.12,1.03,0.77,-2.52,-1.05
-0.02,-0.12,1.03,0.84,-2.52,-1.26
-0.02,-0.12,1.03,1.05,-2.52,-1.05
-0.02,-0.12,1.03,1.05,-2.45,-1.19
-0.02,-0.12,1.03,0.98,-2.45,-1.19
-0.01,-0.12,1.03,0.91,-2.52,-1.05
-0.02,-0.12,1.03,1.05,-2.52,-1.05
-0.01,-0.12,1.03,0.91,-2.59,-1.12
-0.01,-0.12,1.03,0.91,-2.52,-1.19
-0.01,-0.12,1.03,1.05,-2.59,-1.05
-0.01,-0.12,1.03,0.98,-2.45,-0.98
-0.01,-0.12,1.03,1.05,-2.59,-1.12
-0.01,-0.12,1.03,0.98,-2.52,-1.26
-0.02,-0.12,1.03,1.05,-2.52,-1.19
-0.01,-0.12,1.03,1.12,-2.52,-1.12
-0.02,-0.12,1.03,1.05,-2.52,-1.19
-0.02,-0.12,1.03,1.12,-2.52,-1.12
-0.01,-0.12,1.03,0.98,-2.45,-1.33
-0.01,-0.12,1.03,1.05,-2.45,-1.12
-0.02,-0.12,1.03,1.05,-2.45,-0.84
-0.02,-0.12,1.03,0.98,-2.45,-0.84
-0.02,-0.12,1.03,0.91,-2.45,-1.12
-0.01,-0.12,1.03,1.05,-2.45,-1.12
-0.02,-0.12,1.03,0.91,-2.45,-1.19
-0.02,-0.12,1.03,0.98,-2.45,-1.12
-0.02,-0.12,1.03,0.98,-2.52,-0.98
-0.02,-0.12,1.03,0.98,-2.59,-1.26
-0.01,-0.12,1.02,1.05,-2.59,-0.98
-0.01,-0.12,1.03,0.91,-2.59,-1.12
-0.01,-0.12,1.03,1.12,-2.52,-1.26
-0.02,-0.12,1.03,1.12,-2.52,-1.19
-0.01,-0.12,1.03,1.33,-2.52,-1.12
-0.01,-0.12,1.03,1.19,-2.38,-1.26
-0.01,-0.12,1.03,1.19,-2.52,-1.05
-0.02,-0.12,1.03,1.05,-2.52,-1.19
-0.01,-0.12,1.03,0.98,-2.45,-1.12
-0.01,-0.12,1.03,1.05,-2.45,-1.05
-0.01,-0.12,1.03,1.12,-2.45,-1.05
-0.01,-0.12,1.03,0.98,-2.45,-1.19
-0.02,-0.12,1.03,0.98,-2.52,-0.91
-0.01,-0.12,1.03,0.91,-2.52,-1.19
-0.01,-0.12,1.03,0.91,-2.45,-1.19
-0.01,-0.12,1.03,0.84,-2.52,-1.26
-0.01,-0.12,1.03,0.98,-2.45,-1.12
-0.02,-0.12,1.03,0.98,-2.59,-1.26
-0.01,-0.12,1.03,1.05,-2.52,-1.05
-0.02,-0.12,1.03,0.98,-2.59,-0.98
-0.02,-0.12,1.03,1.33,-2.45,-1.19
-0.02,-0.12,1.03,1.33,-2.45,-1.12
-0.02,-0.12,1.03,1.26,-2.38,-1.05
-0.01,-0.12,1.03,1.19,-2.45,-1.19
-0.01,-0.12,1.03,1.05,-2.45,-1.26
-0.02,-0.12,1.03,1.05,-2.52,-1.26
-0.02,-0.12,1.03,1.05,-2.45,-1.19
-0.02,-0.12,1.03,1.12,-2.45,-1.19
-0.01,-0.12,1.03,1.12,-2.45,-1.26
-0.02,-0.12,1.03,0.98,-2.59,-1.12
-0.01,-0.12,1.03,1.12,-2.52,-1.12
-0.01,-0.12,1.03,0.98,-2.45,-1.05
-0.01,-0.12,1.03,0.98,-2.45,-1.19
-0.01,-0.12,1.03,1.05,-2.38,-0.98
-0.01,-0.12,1.03,1.12,-2.45,-1.26
-0.01,-0.12,1.03,1.12,-2.38,-1.4
-0.02,-0.12,1.02,1.19,-2.31,-1.26
-0.01,-0.12,1.03,1.19,-2.45,-1.12
-0.02,-0.12,1.03,1.26,-2.38,-1.12
-0.02,-0.12,1.03,1.12,-2.52,-1.33
-0.02,-0.12,1.03,1.05,-2.45,-1.19
-0.02,-0.12,1.03,1.12,-2.59,-1.19
-0.01,-0.12,1.03,1.12,-2.45,-1.19
-0.02,-0.12,1.03,1.19,-2.38,-1.26
-0.01,-0.12,1.03,1.19,-2.45,-1.19
-0.02,-0.12,1.03,1.19,-2.31,-1.33
-0.02,-0.12,1.03,1.05,-2.45,-1.12
-0.02,-0.12,1.03,1.26,-2.45,-0.98
-0.02,-0.12,1.03,0.98,-2.52,-0.98
-0.02,-0.12,1.03,0.84,-2.52,-1.05
-0.02,-0.12,1.03,0.91,-2.52,-1.19
-0.02,-0.12,1.03,0.91,-2.52,-1.05
-0.02,-0.12,1.03,0.84,-2.45,-1.26
-0.02,-0.12,1.03,0.91,-2.45,-1.33
-0.01,-0.12,1.02,0.98,-2.59,-1.26
-0.02,-0.12,1.03,1.05,-2.45,-1.12
-0.01,-0.12,1.03,1.12,-2.52,-1.12
-0.01,-0.12,1.03,1.05,-2.45,-1.19
-0.01,-0.12,1.03,0.91,-2.45,-1.05
-0.01,-0.12,1.03,1.05,-2.38,-1.05
-0.01,-0.12,1.03,1.05,-2.45,-1.12
-0.02,-0.12,1.03,1.12,-2.52,-1.19
-0.02,-0.12,1.03,1.05,-2.52,-1.19
-0.02,-0.12,1.03,1.12,-2.45,-1.12
-0.01,-0.12,1.03,0.98,-2.45,-1.19
-0.02,-0.12,1.03,0.98,-2.45,-1.26
-0.01,-0.12,1.03,0.98,-2.38,-1.33
-0.01,-0.12,1.03,0.91,-2.38,-1.12
-0.02,-0.12,1.03,0.91,-2.45,-1.19
-0.01,-0.12,1.02,0.91,-2.45,-1.12
-0.02,-0.12,1.03,0.98,-2.45,-0.91
-0.01,-0.12,1.03,0.98,-2.59,-1.19
-0.01,-0.12,1.03,1.05,-2.59,-1.12
-0.02,-0.12,1.03,1.05,-2.59,-1.12
-0.01,-0.12,1.03,1.12,-2.52,-1.05
-0.01,-0.12,1.03,0.84,-2.45,-1.19
-0.02,-0.12,1.03,1.05,-2.45,-1.19
-0.01,-0.12,1.03,1.05,-2.52,-1.12
-0.02,-0.12,1.03,1.12,-2.45,-0.98
-0.02,-0.12,1.03,1.05,-2.52,-1.12
-0.01,-0.12,1.03,1.12,-2.45,-1.12
-0.01,-0.12,1.03,1.05,-2.38,-1.12
-0.02,-0.12,1.03,1.19,-2.45,-1.33
-0.01,-0.12,1.03,1.05,-2.45,-1.33
-0.01,-0.12,1.03,1.05,-2.45,-1.12
-0.02,-0.12,1.03,0.98,-2.59,-1.33
-0.02,-0.12,1.02,0.91,-2.52,-1.33
-0.02,-0.12,1.03,1.05,-2.52,-1.05
-0.01,-0.12,1.03,1.05,-2.52,-1.26
-0.02,-0.12,1.03,1.05,-2.45,-1.12
-0.02,-0.12,1.03,1.12,-2.31,-1.05
-0.02,-0.12,1.03,1.12,-2.52,-0.98
-0.01,-0.12,1.03,0.98,-2.38,-1.26
-0.01,-0.12,1.03,0.98,-2.45,-1.33
-0.01,-0.12,1.03,0.91,-2.38,-1.26
-0.02,-0.12,1.03,1.05,-2.45,-1.05
-0.02,-0.12,1.03,0.91,-2.52,-1.19
-0.02,-0.12,1.02,1.19,-2.52,-1.05
-0.02,-0.12,1.03,1.19,-2.52,-1.26
-0.02,-0.12,1.03,1.12,-2.52,-1.19
-0.01,-0.12,1.03,1.12,-2.45,-1.19
-0.01,-0.12,1.03,1.05,-2.38,-1.05
-0.01,-0.12,1.03,1.19,-2.45,-0.98
-0.02,-0.12,1.03,0.91,-2.38,-1.12
-0.02,-0.12,1.03,0.84,-2.52,-1.12
-0.02,-0.12,1.03,0.91,-2.45,-1.26
-0.02,-0.12,1.02,1.12,-2.38,-1.05
-0.02,-0.12,1.03,0.84,-2.52,-1.12
-0.02,-0.12,1.03,0.98,-2.38,-1.19
-0.02,-0.12,1.03,0.91,-2.59,-1.19
-0.02,-0.12,1.02,1.05,-2.52,-1.12
-0.02,-0.12,1.03,1.12,-2.59,-0.98
-0.01,-0.12,1.02,1.12,-2.59,-1.12
-0.01,-0.12,1.03,1.33,-2.52,-1.33
-0.01,-0.12,1.03,1.4,-2.52,-1.12
-0.01,-0.12,1.03,1.33,-2.45,-1.12
-0.01,-0.12,1.03,1.26,-2.38,-1.12
-0.01,-0.12,1.03,1.12,-2.31,-1.26
-0.01,-0.12,1.03,1.12,-2.38,-1.12
-0.02,-0.12,1.03,0.91,-2.31,-1.19
-0.02,-0.12,1.03,0.84,-2.45,-1.19
-0.02,-0.12,1.03,0.91,-2.45,-1.05
-0.02,-0.12,1.03,0.84,-2.45,-1.19
-0.01,-0.12,1.03,0.84,-2.59,-1.26
-0.01,-0.12,1.03,0.7,-2.38,-1.33
-0.01,-0.12,1.03,0.84,-2.45,-1.05
-0.01,-0.12,1.03,0.91,-2.38,-1.12
-0.01,-0.12,1.02,0.84,-2.24,-1.19
-0.02,-0.12,1.02,1.05,-2.38,-1.26
-0.01,-0.12,1.02,1.19,-2.38,-0.98
-0.01,-0.12,1.02,1.26,-2.52,-1.12
-0.01,-0.12,1.03,1.47,-2.38,-1.26
-0.02,-0.12,1.03,1.33,-2.52,-0.98
-0.02,-0.12,1.03,1.4,-2.59,-1.12
-0.01,-0.12,1.03,1.33,-2.52,-1.12
-0.02,-0.12,1.03,1.26,-2.52,-1.12
-0.02,-0.12,1.03,1.33,-2.45,-1.05
-0.02,-0.12,1.03,1.19,-2.31,-1.26
-0.02,-0.12,1.03,1.05,-2.31,-1.12
-0.02,-0.12,1.03,0.84,-2.31,-1.19
-0.02,-0.12,1.03,0.7,-2.45,-1.4
-0.02,-0.12,1.03,0.84,-2.45,-1.05
-0.02,-0.12,1.03,0.84,-2.45,-1.12
-0.02,-0.12,1.02,0.84,-2.45,-1.12
-0.02,-0.12,1.03,0.91,-2.52,-1.05
-0.02,-0.12,1.03,0.91,-2.52,-0.98
-0.02,-0.12,1.03,1.05,-2.45,-0.91
-0.01,-0.12,1.03,1.05,-2.45,-0.98
-0.02,-0.12,1.03,1.26,-2.52,-0.91
-0.01,-0.12,1.03,1.19,-2.59,-1.12
-0.01,-0.12,1.03,1.26,-2.59,-1.05
-0.01,-0.12,1.03,1.19,-2.66,-1.05
-0.01,-0.12,1.03,1.19,-2.45,-1.19
-0.01,-0.12,1.03,1.33,-2.59,-0.91
-0.01,-0.12,1.03,1.33,-2.45,-1.19
-0.01,-0.12,1.03,1.12,-2.38,-1.12
-0.01,-0.12,1.03,1.05,-2.38,-1.33
-0.01,-0.12,1.03,1.19,-2.45,-1.12
-0.02,-0.12,1.03,1.05,-2.38,-1.19
-0.02,-0.12,1.03,0.91,-2.45,-1.19
-0.01,-0.12,1.03,0.84,-2.45,-1.05
-0.02,-0.12,1.03,0.84,-2.45,-1.19
-0.02,-0.12,1.03,0.91,-2.38,-0.98
-0.02,-0.12,1.03,0.77,-2.45,-1.12
-0.02,-0.12,1.03,0.7,-2.38,-1.12
-0.02,-0.12,1.02,0.91,-2.31,-0.98
-0.02,-0.12,1.03,0.98,-2.38,-1.19
-0.02,-0.12,1.02,1.12,-2.38,-1.05
-0.02,-0.12,1.03,1.12,-2.52,-1.12
-0.02,-0.12,1.03,1.26,-2.52,-0.91
-0.02,-0.12,1.03,1.19,-2.59,-1.12
-0.01,-0.12,1.03,1.26,-2.59,-0.91
-0.01,-0.12,1.03,1.12,-2.59,-1.05
-0.01,-0.12,1.03,1.12,-2.59,-0.98
-0.01,-0.12,1.03,1.19,-2.52,-0.91
-0.02,-0.12,1.03,1.26,-2.52,-1.05
-0.02,-0.12,1.03,1.12,-2.52,-1.12
-0.02,-0.12,1.03,1.05,-2.45,-1.33
-0.01,-0.12,1.03,1.05,-2.52,-1.19
-0.01,-0.12,1.03,0.98,-2.45,-1.26
-0.01,-0.12,1.03,0.98,-2.52,-1.05
-0.01,-0.12,1.03,0.98,-2.45,-1.05
-0.01,-0.12,1.03,0.91,-2.38,-1.05
-0.02,-0.12,1.03,0.91,-2.38,-1.33
-0.02,-0.12,1.03,0.84,-2.45,-1.12
-0.01,-0.12,1.02,1.05,-2.38,-0.98
-0.01,-0.12,1.02,1.05,-2.45,-1.19
-0.01,-0.12,1.02,1.26,-2.45,-1.19
-0.01,-0.12,1.03,1.05,-2.45,-1.26
-0.01,-0.12,1.03,1.26,-2.38,-1.26
-0.02,-0.12,1.03,1.33,-2.38,-1.12
-0.01,-0.12,1.03,1.33,-2.52,-1.19
-0.02,-0.12,1.03,1.33,-2.52,-1.19
-0.02,-0.12,1.03,1.19,-2.52,-1.4
-0.01,-0.12,1.03,1.26,-2.45,-1.19
-0.01,-0.12,1.03,1.26,-2.52,-1.19
-0.01,-0.12,1.03,1.19,-2.38,-1.26
-0.02,-0.12,1.03,0.98,-2.38,-1.12
-0.02,-0.12,1.03,0.84,-2.31,-1.12
-0.02,-0.12,1.03,0.98,-2.31,-1.26
-0.02,-0.12,1.02,0.91,-2.38,-1.12
-0.02,-0.12,1.03,0.7,-2.45,-1.12
-0.02,-0.12,1.03,0.98,-2.38,-1.12
-0.02,-0.12,1.03,0.98,-2.45,-1.26
-0.01,-0.12,1.03,0.98,-2.38,-1.26
-0.02,-0.12,1.03,1.05,-2.38,-1.12
-0.01,-0.12,1.03,0.98,-2.38,-0.98
-0.02,-0.12,1.03,1.05,-2.38,-1.12
-0.02,-0.12,1.02,1.12,-2.38,-1.12
-0.02,-0.12,1.02,1.19,-2.45,-0.98
-0.02,-0.12,1.03,1.12,-2.59,-1.05
-0.02,-0.12,1.03,1.33,-2.52,-1.12
-0.01,-0.12,1.03,1.4,-2.66,-1.05
-0.01,-0.12,1.03,1.12,-2.59,-1.19
-0.01,-0.12,1.03,1.26,-2.45,-1.12
-0.02,-0.12,1.03,1.05,-2.45,-0.98
-0.01,-0.12,1.03,1.12,-2.38,-1.05
-0.02,-0.11,1.03,1.05,-2.38,-1.19
-0.02,-0.12,1.03,1.05,-2.31,-1.19
-0.02,-0.12,1.03,1.12,-2.24,-1.19
-0.02,-0.12,1.03,1.12,-2.38,-1.19
-0.02,-0.12,1.03,0.91,-2.52,-1.33
-0.02,-0.12,1.03,0.91,-2.52,-1.33
-0.01,-0.12,1.03,0.84,-2.66,-1.19
-0.01,-0.12,1.03,0.84,-2.45,-1.12
-0.02,-0.12,1.03,0.77,-2.38,-1.26
-0.01,-0.12,1.02,0.98,-2.38,-1.12
-0.01,-0.12,1.02,1.19,-2.45,-0.98
-0.02,-0.12,1.03,1.05,-2.52,-1.26
-0.02,-0.12,1.03,1.33,-2.45,-0.91
-0.02,-0.12,1.03,1.19,-2.38,-0.98
-0.02,-0.12,1.03,1.05,-2.38,-0.91
-0.02,-0.12,1.03,1.12,-2.52,-0.77
-0.02,-0.12,1.03,1.05,-2.38,-0.91
-0.02,-0.12,1.03,1.19,-2.45,-0.98
-0.01,-0.12,1.03,0.98,-2.52,-0.98
-0.01,-0.12,1.03,0.98,-2.38,-0.91
-0.01,-0.12,1.03,0.84,-2.45,-0.91
-0.01,-0.12,1.03,0.77,-2.38,-0.91
-0.01,-0.12,1.03,0.56,-2.38,-1.12
-0.02,-0.12,1.03,0.7,-2.45,-1.12
-0.02,-0.12,1.03,0.63,-2.45,-1.12
-0.02,-0.12,1.03,0.63,-2.45,-1.12
-0.02,-0.12,1.03,0.84,-2.31,-1.12
-0.02,-0.12,1.03,0.77,-2.52,-1.33
-0.02,-0.12,1.02,1.05,-2.52,-1.05
-0.02,-0.12,1.02,1.12,-2.66,-0.91
-0.02,-0.12,1.02,1.05,-2.59,-1.12
-0.02,-0.12,1.03,1.26,-2.66,-0.84
-0.02,-0.12,1.03,1.19,-2.66,-1.12
-0.01,-0.12,1.03,1.26,-2.59,-1.05
-0.02,-0.12,1.03,1.33,-2.52,-1.05
-0.02,-0.12,1.03,1.19,-2.52,-1.05
-0.02,-0.12,1.03,1.12,-2.52,-1.19
-0.02,-0.12,1.03,1.12,-2.59,-0.98
-0.02,-0.12,1.03,0.98,-2.52,-1.19
-0.01,-0.12,1.03,0.91,-2.59,-1.26
-0.02,-0.12,1.03,0.63,-2.45,-1.19
-0.02,-0.12,1.03,0.7,-2.45,-1.12
-0.02,-0.12,1.03,0.77,-2.38,-1.05
-0.02,-0.12,1.03,0.7,-2.52,-0.91
-0.02,-0.12,1.03,0.77,-2.45,-0.91
-0.02,-0.12,1.02,0.84,-2.59,-1.12
-0.01,-0.12,1.03,0.91,-2.59,-0.98
-0.01,-0.12,1.03,1.05,-2.52,-0.84
-0.01,-0.12,1.03,0.98,-2.52,-0.91
-0.01,-0.12,1.03,0.98,-2.59,-0.77
-0.01,-0.12,1.03,1.05,-2.59,-1.05
-0.01,-0.12,1.02,1.12,-2.45,-0.91
-0.01,-0.12,1.03,1.19,-2.59,-1.19
-0.01,-0.12,1.03,1.26,-2.52,-1.12
-0.01,-0.12,1.03,1.4,-2.59,-1.19
-0.01,-0.12,1.03,1.4,-2.52,-1.19
-0.01,-0.12,1.03,1.33,-2.45,-1.26
-0.02,-0.12,1.03,1.12,-2.45,-1.19
-0.01,-0.12,1.03,1.19,-2.45,-1.05
-0.02,-0.12,1.03,1.05,-2.31,-1.05
-0.02,-0.12,1.03,0.84,-2.24,-1.26
-0.02,-0.12,1.03,0.98,-2.45,-0.91
-0.02,-0.12,1.03,0.84,-2.45,-1.12
-0.02,-0.12,1.03,0.77,-2.45,-1.05
-0.02,-0.12,1.03,0.63,-2.45,-1.19
-0.02,-0.12,1.02,0.7,-2.38,-0.91
-0.02,-0.12,1.02,0.7,-2.38,-1.33
-0.02,-0.12,1.02,0.84,-2.45,-1.19
-0.01,-0.12,1.03,0.98,-2.52,-1.26
-0.01,-0.12,1.03,1.05,-2.52,-1.12
-0.02,-0.12,1.03,1.26,-2.38,-1.12
-0.02,-0.12,1.03,1.26,-2.59,-0.84
-0.02,-0.12,1.03,1.19,-2.52,-1.05
-0.02,-0.12,1.03,1.19,-2.59,-1.12
-0.01,-0.12,1.03,1.33,-2.52,-0.91
-0.02,-0.12,1.03,1.33,-2.52,-1.12
-0.01,-0.12,1.03,1.19,-2.52,-1.05
-0.01,-0.12,1.03,1.05,-2.52,-1.26
-0.02,-0.12,1.03,0.98,-2.52,-1.05
-0.01,-0.12,1.03,0.91,-2.45,-1.26
-0.01,-0.12,1.03,0.77,-2.45,-1.12
-0.01,-0.12,1.03,0.91,-2.45,-1.19
-0.01,-0.12,1.03,0.7,-2.52,-1.05
-0.02,-0.12,1.03,0.91,-2.45,-1.05
-0.01,-0.12,1.03,0.84,-2.45,-1.12
-0.02,-0.12,1.02,0.84,-2.52,-1.19
-0.02,-0.12,1.02,0.98,-2.52,-1.12
-0.02,-0.12,1.02,0.98,-2.52,-1.05
-0.02,-0.12,1.02,0.98,-2.52,-1.19
-0.01,-0.12,1.03,1.12,-2.59,-1.05
-0.01,-0.12,1.03,1.19,-2.52,-1.12
-0.02,-0.12,1.03,1.26,-2.52,-1.05
-0.02,-0.12,1.03,1.26,-2.52,-1.26
-0.02,-0.12,1.03,1.12,-2.52,-0.98
-0.02,-0.12,1.03,0.98,-2.45,-1.33
-0.01,-0.12,1.03,1.12,-2.38,-1.12
-0.01,-0.12,1.02,1.12,-2.52,-1.05
-0.01,-0.12,1.03,1.12,-2.52,-1.05
-0.01,-0.12,1.03,0.98,-2.59,-1.12
-0.01,-0.12,1.03,0.91,-2.52,-1.19
-0.01,-0.12,1.03,0.84,-2.52,-1.12
-0.02,-0.12,1.03,0.77,-2.52,-1.12
-0.02,-0.12,1.03,0.7,-2.59,-1.12
-0.02,-0.12,1.03,0.91,-2.38,-1.12
-0.02,-0.12,1.03,0.98,-2.52,-1.05
-0.02,-0.12,1.03,1.05,-2.45,-1.12
-0.02,-0.12,1.03,1.19,-2.52,-1.05
-0.02,-0.12,1.03,1.19,-2.59,-1.12
-0.01,-0.12,1.03,1.12,-2.59,-1.19
-0.01,-0.12,1.03,1.19,-2.59,-1.19
-0.01,-0.12,1.03,1.05,-2.52,-1.33
-0.02,-0.12,1.03,1.05,-2.45,-1.12
-0.02,-0.12,1.03,0.98,-2.45,-1.19
-0.02,-0.12,1.02,1.05,-2.38,-1.33
-0.01,-0.12,1.03,1.05,-2.52,-1.12
-0.02,-0.12,1.03,1.05,-2.52,-1.12
-0.02,-0.12,1.03,1.05,-2.52,-1.05
-0.02,-0.12,1.03,1.05,-2.45,-1.05
-0.02,-0.12,1.03,0.91,-2.45,-1.12
-0.02,-0.12,1.03,0.98,-2.38,-1.05
-0.01,-0.12,1.03,0.91,-2.45,-0.98
-0.01,-0.12,1.03,1.05,-2.38,-1.05
-0.01,-0.12,1.03,1.12,-2.45,-1.12
-0.01,-0.12,1.03,1.05,-2.45,-1.05
-0.01,-0.12,1.03,1.12,-2.52,-1.26
-0.01,-0.12,1.03,1.19,-2.66,-1.26
-0.01,-0.12,1.03,1.05,-2.52,-1.4
-0.01,-0.12,1.03,1.19,-2.45,-1.19
-0.02,-0.12,1.03,1.26,-2.59,-1.33
-0.02,-0.12,1.03,1.33,-2.45,-1.19
-0.02,-0.12,1.03,1.33,-2.45,-1.12
-0.01,-0.12,1.03,1.33,-2.45,-1.19
-0.02,-0.12,1.03,1.12,-2.45,-1.4
-0.02,-0.12,1.03,1.05,-2.45,-1.05
-0.01,-0.12,1.03,1.05,-2.45,-1.19
-0.02,-0.12,1.03,0.98,-2.31,-1.12
-0.02,-0.12,1.03,0.98,-2.45,-1.05
-0.02,-0.12,1.02,0.84,-2.45,-1.33
-0.02,-0.12,1.03,0.98,-2.52,-1.26
-0.02,-0.12,1.03,1.12,-2.45,-1.19
-0.02,-0.12,1.03,0.98,-2.52,-1.12
-0.02,-0.12,1.03,0.98,-2.52,-1.19
-0.01,-0.12,1.03,1.05,-2.45,-1.12
-0.01,-0.12,1.03,1.19,-2.45,-0.98
-0.02,-0.12,1.03,1.05,-2.31,-1.05
-0.02,-0.12,1.02,1.05,-2.45,-1.19
-0.02,-0.12,1.03,1.33,-2.31,-1.05
-0.02,-0.12,1.03,1.26,-2.59,-1.26
-0.01,-0.12,1.03,1.26,-2.59,-1.05
-0.01,-0.12,1.03,1.19,-2.59,-1.19
-0.02,-0.12,1.03,1.19,-2.52,-1.12
-0.01,-0.12,1.03,1.05,-2.52,-1.19
-0.01,-0.12,1.03,0.98,-2.45,-1.33
-0.02,-0.12,1.03,0.98,-2.45,-1.33
-0.02,-0.12,1.03,1.05,-2.38,-1.19
-0.02,-0.12,1.03,1.05,-2.45,-1.33
-0.02,-0.12,1.03,0.91,-2.38,-1.33
-0.02,-0.12,1.03,1.05,-2.45,-1.12
-0.02,-0.12,1.03,0.91,-2.38,-1.12
-0.02,-0.12,1.03,0.98,-2.52,-1.26
-0.02,-0.12,1.03,0.98,-2.45,-1.05
-0.02,-0.12,1.03,0.98,-2.45,-1.12
-0.01,-0.12,1.03,1.05,-2.52,-1.12
-0.02,-0.12,1.03,1.33,-2.52,-1.05
-0.01,-0.12,1.03,1.26,-2.38,-0.77
-0.02,-0.12,1.03,1.19,-2.52,-1.19
-0.02,-0.12,1.03,1.26,-2.45,-1.12
-0.01,-0.12,1.03,1.33,-2.45,-1.26
-0.01,-0.12,1.03,1.12,-2.45,-1.12
-0.02,-0.12,1.03,1.19,-2.52,-1.12
-0.01,-0.12,1.03,0.98,-2.45,-0.84
-0.01,-0.12,1.03,0.98,-2.38,-1.26
-0.01,-0.12,1.03,0.98,-2.45,-1.26
-0.01,-0.12,1.03,0.98,-2.45,-1.19
-0.01,-0.12,1.03,0.98,-2.52,-1.26
-0.02,-0.12,1.03,0.98,-2.52,-1.26
-0.01,-0.12,1.03,0.91,-2.52,-1.19
-0.02,-0.12,1.03,0.98,-2.59,-1.19
-0.01,-0.12,1.03,1.05,-2.59,-0.91
-0.01,-0.12,1.03,1.12,-2.38,-1.12
-0.01,-0.12,1.03,1.19,-2.38,-1.05
-0.02,-0.12,1.03,1.19,-2.38,-1.12
-0.02,-0.12,1.03,1.12,-2.45,-1.19
-0.02,-0.12,1.03,1.26,-2.52,-1.19
-0.02,-0.12,1.03,1.05,-2.59,-1.19
-0.02,-0.12,1.03,1.05,-2.66,-1.19
-0.02,-0.12,1.03,1.12,-2.45,-1.12
-0.02,-0.12,1.03,1.12,-2.52,-1.19
-0.02,-0.12,1.03,1.05,-2.45,-1.05
-0.02,-0.12,1.03,0.98,-2.45,-1.19
-0.02,-0.12,1.03,1.12,-2.45,-1.12
-0.02,-0.12,1.03,1.26,-2.59,-0.98
-0.02,-0.12,1.03,1.12,-2.66,-0.98
-0.02,-0.12,1.03,1.26,-2.59,-0.84
-0.02,-0.12,1.03,1.33,-2.52,-1.05
-0.02,-0.12,1.03,1.12,-2.59,-1.19
-0.01,-0.12,1.03,1.19,-2.59,-0.91
-0.01,-0.12,1.03,1.05,-2.52,-1.12
-0.01,-0.12,1.03,1.19,-2.66,-0.98
-0.01,-0.12,1.03,1.05,-2.52,-1.05
-0.01,-0.12,1.03,0.91,-2.59,-0.98
-0.01,-0.11,1.03,0.84,-2.52,-1.19
-0.01,-0.12,1.03,0.98,-2.45,-1.19
-0.01,-0.12,1.03,0.98,-2.52,-1.19
-0.01,-0.12,1.03,1.19,-2.45,-1.4
-0.01,-0.12,1.03,1.19,-2.31,-1.12
-0.01,-0.12,1.03,1.26,-2.45,-1.26
-0.01,-0.12,1.02,1.33,-2.45,-1.19
-0.01,-0.12,1.03,1.12,-2.45,-1.4
-0.02,-0.12,1.03,1.05,-2.59,-1.26
-0.02,-0.12,1.03,0.98,-2.38,-1.26
-0.02,-0.12,1.03,0.98,-2.52,-1.33
-0.02,-0.12,1.03,0.91,-2.38,-1.4
-0.02,-0.12,1.03,0.91,-2.31,-1.19
-0.02,-0.12,1.03,0.91,-2.38,-1.12
-0.02,-0.12,1.02,0.91,-2.31,-1.19
-0.02,-0.12,1.03,0.91,-2.52,-1.05
-0.02,-0.12,1.02,0.91,-2.52,-1.12
-0.02,-0.12,1.02,1.12,-2.52,-1.05
-0.02,-0.12,1.03,1.19,-2.45,-1.19
-0.01,-0.12,1.03,1.26,-2.45,-1.05
-0.01,-0.12,1.03,1.19,-2.45,-1.19
-0.02,-0.12,1.03,1.19,-2.52,-1.12
-0.01,-0.12,1.03,1.12,-2.38,-1.26
-0.01,-0.12,1.03,1.19,-2.45,-0.98
-0.02,-0.12,1.03,1.12,-2.59,-1.19
-0.02,-0.12,1.03,1.26,-2.52,-1.26
-0.01,-0.12,1.03,1.26,-2.52,-1.19
-0.01,-0.12,1.03,1.19,-2.45,-1.26
-0.01,-0.12,1.03,0.91,-2.38,-1.05
-0.01,-0.12,1.03,0.98,-2.31,-1.19
-0.01,-0.12,1.03,0.84,-2.31,-0.98
-0.02,-0.12,1.03,0.91,-2.38,-1.19
-0.02,-0.12,1.02,0.98,-2.38,-0.91
-0.02,-0.12,1.03,1.05,-2.52,-1.12
-0.02,-0.12,1.03,0.98,-2.38,-1.12
-0.02,-0.12,1.03,1.05,-2.52,-1.26
-0.02,-0.12,1.03,0.98,-2.45,-1.05
-0.02,-0.12,1.03,1.05,-2.38,-1.12
-0.02,-0.12,1.03,0.91,-2.45,-1.19
-0.02,-0.12,1.02,0.98,-2.52,-1.12
-0.02,-0.12,1.02,1.05,-2.59,-1.19
-0.02,-0.12,1.03,1.19,-2.59,-0.98
-0.01,-0.12,1.03,1.19,-2.45,-1.05
-0.01,-0.12,1.03,1.05,-2.52,-1.12
-0.02,-0.12,1.03,1.12,-2.59,-1.05
-0.01,-0.12,1.03,1.12,-2.52,-0.98
-0.01,-0.12,1.03,1.12,-2.52,-1.12
-0.02,-0.12,1.03,0.84,-2.52,-1.12
-0.01,-0.12,1.03,0.98,-2.52,-1.12
-0.01,-0.12,1.03,0.98,-2.52,-1.12
-0.02,-0.12,1.03,1.05,-2.52,-1.12
-0.02,-0.12,1.03,0.98,-2.59,-1.33
-0.02,-0.12,1.03,1.05,-2.52,-1.05
-0.02,-0.12,1.03,0.91,-2.45,-0.98
-0.01,-0.12,1.03,0.91,-2.45,-1.12
-0.02,-0.12,1.03,0.91,-2.38,-1.12
-0.02,-0.12,1.03,1.12,-2.52,-1.12
-0.02,-0.12,1.03,1.05,-2.52,-1.12
-0.02,-0.12,1.03,0.91,-2.59,-0.98
-0.02,-0.12,1.03,0.91,-2.59,-1.19
-0.02,-0.12,1.03,1.12,-2.52,-1.05
-0.02,-0.12,1.03,1.05,-2.52,-1.05
-0.02,-0.12,1.03,1.05,-2.59,-0.98
-0.02,-0.12,1.03,0.98,-2.59,-0.98
-0.01,-0.12,1.03,0.98,-2.59,-1.12
-0.01,-0.12,1.03,1.12,-2.59,-1.19
-0.02,-0.12,1.03,1.12,-2.52,-1.05
-0.02,-0.12,1.03,0.98,-2.45,-1.05
-0.02,-0.12,1.03,1.05,-2.38,-1.05
-0.02,-0.12,1.03,0.98,-2.38,-1.26
-0.02,-0.12,1.03,0.98,-2.52,-1.12
-0.01,-0.12,1.03,0.98,-2.52,-1.12
-0.02,-0.12,1.03,0.98,-2.59,-0.98
-0.02,-0.12,1.02,0.91,-2.52,-1.19
-0.01,-0.12,1.03,1.12,-2.52,-1.12
-0.01,-0.12,1.03,1.05,-2.45,-1.05
-0.01,-0.12,1.03,0.98,-2.45,-1.12
-0.01,-0.12,1.03,1.05,-2.52,-1.12
-0.01,-0.12,1.03,0.98,-2.45,-1.26
-0.01,-0.12,1.03,0.98,-2.52,-1.12
-0.01,-0.12,1.03,1.12,-2.45,-0.91
-0.01,-0.12,1.03,1.12,-2.45,-0.98
-0.01,-0.12,1.03,1.05,-2.45,-1.4
-0.01,-0.12,1.03,1.19,-2.45,-1.4
-0.01,-0.12,1.03,1.05,-2.38,-1.33
-0.01,-0.12,1.03,0.98,-2.31,-1.19
-0.01,-0.12,1.03,0.84,-2.38,-1.4
-0.02,-0.12,1.03,0.77,-2.31,-1.4
-0.02,-0.12,1.03,0.84,-2.31,-1.33
-0.02,-0.12,1.02,0.98,-2.52,-1.12
-0.02,-0.12,1.03,0.98,-2.38,-1.26
-0.02,-0.12,1.03,0.91,-2.52,-1.19
-0.02,-0.12,1.03,0.98,-2.38,-1.12
-0.02,-0.12,1.03,0.91,-2.45,-1.05
-0.02,-0.12,1.03,0.77,-2.45,-0.91
-0.02,-0.12,1.02,0.84,-2.45,-0.91
-0.02,-0.12,1.02,0.91,-2.52,-0.84
-0.02,-0.12,1.02,1.05,-2.52,-0.84
-0.02,-0.12,1.03,0.98,-2.59,-0.91
-0.02,-0.12,1.02,1.19,-2.52,-0.63
-0.01,-0.12,1.03,1.19,-2.52,-0.98
-0.01,-0.12,1.03,1.19,-2.52,-0.77
-0.01,-0.12,1.03,1.05,-2.59,-0.91
-0.01,-0.12,1.03,1.26,-2.59,-1.05
-0.01,-0.12,1.03,1.12,-2.59,-1.26
-0.01,-0.12,1.03,1.26,-2.52,-1.12
-0.01,-0.12,1.03,1.26,-2.59,-0.98
-0.01,-0.12,1.03,1.26,-2.59,-1.12
-0.01,-0.12,1.03,1.12,-2.38,-1.19
-0.01,-0.12,1.03,1.12,-2.45,-1.33
-0.02,-0.12,1.03,0.98,-2.31,-1.05
-0.01,-0.12,1.03,0.98,-2.38,-1.26
-0.02,-0.12,1.03,0.84,-2.38,-1.26
-0.02,-0.12,1.03,0.7,-2.38,-1.19
-0.02,-0.12,1.03,0.84,-2.45,-1.12
-0.02,-0.12,1.03,0.7,-2.45,-1.19
-0.02,-0.12,1.02,0.77,-2.59,-1.05
-0.02,-0.12,1.02,0.91,-2.52,-1.12
-0.02,-0.12,1.02,1.19,-2.45,-1.05
-0.02,-0.12,1.03,1.12,-2.45,-0.98
-0.02,-0.12,1.03,1.19,-2.45,-1.12
-0.02,-0.12,1.03,1.19,-2.52,-1.12
-0.02,-0.12,1.02,1.47,-2.45,-0.84
-0.02,-0.12,1.03,1.26,-2.45,-1.19
-0.01,-0.12,1.03,1.12,-2.52,-1.12
-0.02,-0.12,1.03,1.26,-2.59,-0.91
-0.02,-0.12,1.03,1.12,-2.52,-1.19
-0.02,-0.12,1.03,1.12,-2.52,-1.12
-0.02,-0.12,1.03,0.91,-2.45,-1.19
-0.01,-0.12,1.03,0.91,-2.45,-1.12
-0.01,-0.12,1.03,0.84,-2.45,-1.26
-0.01,-0.12,1.03,0.77,-2.38,-1.26
-0.02,-0.12,1.03,0.7,-2.45,-1.26
-0.02,-0.12,1.02,0.84,-2.45,-1.19
-0.02,-0.12,1.02,0.98,-2.45,-1.19
-0.01,-0.12,1.03,0.91,-2.52,-1.26
-0.02,-0.12,1.03,0.98,-2.52,-1.12
-0.02,-0.12,1.02,1.19,-2.45,-1.12
-0.01,-0.12,1.03,1.26,-2.45,-1.19
-0.02,-0.12,1.03,1.33,-2.52,-0.91
-0.02,-0.12,1.03,1.26,-2.38,-1.33
-0.02,-0.12,1.03,1.26,-2.52,-1.19
-0.02,-0.12,1.03,1.19,-2.52,-1.26
-0.02,-0.12,1.03,1.26,-2.45,-1.12
-0.01,-0.12,1.03,1.33,-2.45,-1.05
-0.01,-0.12,1.03,1.19,-2.52,-1.26
-0.02,-0.12,1.03,0.91,-2.59,-1.12
-0.02,-0.12,1.03,0.98,-2.45,-1.19
-0.02,-0.12,1.03,0.98,-2.38,-1.05
-0.01,-0.12,1.03,0.91,-2.45,-1.05
-0.01,-0.12,1.03,0.84,-2.45,-1.19
-0.01,-0.12,1.03,0.98,-2.45,-0.98
-0.01,-0.12,1.02,0.91,-2.45,-1.12
-0.02,-0.12,1.03,1.05,-2.52,-0.98
-0.01,-0.12,1.03,1.12,-2.52,-1.19
-0.02,-0.12,1.03,1.12,-2.52,-1.12
-0.02,-0.12,1.03,0.98,-2.45,-1.19
-0.02,-0.12,1.03,1.19,-2.52,-1.19
-0.02,-0.12,1.03,1.26,-2.45,-1.19
-0.02,-0.12,1.03,1.05,-2.45,-1.33
-0.02,-0.12,1.03,1.12,-2.45,-0.91
-0.02,-0.12,1.03,1.12,-2.38,-1.12
-0.02,-0.12,1.03,1.26,-2.31,-1.12
-0.02,-0.12,1.03,1.26,-2.52,-1.05
-0.02,-0.12,1.03,1.19,-2.52,-0.98
-0.01,-0.12,1.03,1.12,-2.52,-1.33
-0.01,-0.12,1.03,0.84,-2.59,-0.98
-0.02,-0.12,1.03,0.98,-2.59,-0.98
-0.02,-0.12,1.02,1.05,-2.31,-1.12
-0.01,-0.12,1.03,1.05,-2.45,-1.12
-0.02,-0.12,1.02,0.91,-2.38,-1.19
-0.02,-0.12,1.03,1.19,-2.45,-1.12
-0.01,-0.12,1.02,1.19,-2.52,-1.05
-0.01,-0.12,1.03,1.05,-2.59,-1.19
-0.01,-0.12,1.03,0.98,-2.52,-1.26
-0.02,-0.12,1.03,1.05,-2.45,-1.05
-0.01,-0.12,1.03,0.98,-2.52,-1.19
-0.02,-0.12,1.03,1.12,-2.45,-1.26
-0.01,-0.12,1.03,1.19,-2.45,-1.26
-0.01,-0.12,1.03,1.26,-2.45,-1.19
-0.02,-0.12,1.03,1.19,-2.38,-1.12
-0.02,-0.12,1.03,1.12,-2.45,-1.33
-0.02,-0.12,1.03,0.91,-2.52,-1.12
-0.02,-0.12,1.03,1.12,-2.52,-1.05
-0.02,-0.12,1.03,0.91,-2.52,-0.98
-0.02,-0.12,1.03,0.98,-2.59,-1.26
-0.02,-0.12,1.03,0.77,-2.52,-1.12
-0.02,-0.12,1.02,0.98,-2.45,-1.12
-0.02,-0.12,1.03,0.84,-2.38,-0.91
-0.01,-0.12,1.03,0.98,-2.45,-0.98
-0.02,-0.12,1.03,1.12,-2.38,-1.19
-0.02,-0.12,1.02,1.12,-2.38,-1.19
-0.01,-0.12,1.03,1.19,-2.52,-1.12
-0.01,-0.12,1.02,1.19,-2.59,-1.05
-0.01,-0.12,1.03,1.26,-2.45,-1.05
-0.01,-0.12,1.03,1.05,-2.66,-1.26
-0.02,-0.12,1.03,1.26,-2.38,-1.12
-0.01,-0.12,1.03,1.05,-2.52,-1.12
-0.01,-0.12,1.03,1.05,-2.38,-1.26
-0.02,-0.12,1.03,1.05,-2.31,-1.26
-0.02,-0.12,1.03,0.98,-2.45,-1.26
-0.01,-0.12,1.03,0.98,-2.38,-1.12
-0.01,-0.12,1.03,0.84,-2.38,-1.33
-0.02,-0.12,1.03,0.91,-2.45,-1.33
-0.02,-0.12,1.03,0.98,-2.52,-1.19
-0.02,-0.12,1.03,0.98,-2.52,-1.19
-0.02,-0.12,1.03,0.91,-2.59,-1.12
-0.02,-0.12,1.03,0.91,-2.45,-0.91
-0.02,-0.12,1.03,1.12,-2.45,-1.26
-0.02,-0.12,1.03,1.05,-2.38,-1.05
-0.02,-0.12,1.02,1.12,-2.52,-1.12
-0.01,-0.12,1.03,1.33,-2.45,-0.98
-0.01,-0.12,1.03,1.19,-2.52,-1.05
-0.02,-0.12,1.03,1.26,-2.59,-1.12
-0.01,-0.12,1.03,1.26,-2.59,-1.12
-0.02,-0.12,1.03,1.19,-2.45,-1.26
-0.02,-0.12,1.03,1.12,-2.38,-1.19
-0.02,-0.12,1.03,1.05,-2.52,-1.05
-0.01,-0.12,1.03,1.05,-2.45,-1.12
-0.01,-0.12,1.03,1.12,-2.52,-1.12
-0.02,-0.12,1.03,1.12,-2.59,-1.12
-0.02,-0.12,1.03,1.05,-2.52,-1.12
-0.02,-0.12,1.03,1.05,-2.38,-1.12
-0.01,-0.12,1.03,0.98,-2.31,-1.26
-0.01,-0.12,1.03,1.05,-2.38,-1.12
-0.02,-0.12,1.03,0.98,-2.38,-1.19
-0.02,-0.12,1.03,1.05,-2.52,-1.26
-0.02,-0.12,1.03,1.05,-2.45,-1.26
-0.02,-0.12,1.03,1.05,-2.45,-1.26
-0.02,-0.12,1.03,1.05,-2.45,-1.05
-0.01,-0.12,1.03,0.98,-2.45,-1.26
-0.02,-0.12,1.03,1.19,-2.52,-1.12
-0.02,-0.12,1.03,1.12,-2.52,-1.26
-0.01,-0.12,1.03,1.19,-2.52,-1.12
-0.02,-0.12,1.03,1.19,-2.45,-1.33
-0.01,-0.12,1.02,1.19,-2.52,-1.12
-0.02,-0.12,1.03,1.26,-2.38,-1.12
-0.01,-0.12,1.03,1.19,-2.38,-1.26
-0.02,-0.12,1.03,1.19,-2.45,-0.84
-0.02,-0.12,1.03,0.98,-2.38,-1.19
-0.01,-0.12,1.03,1.12,-2.45,-0.98
-0.01,-0.12,1.03,1.05,-2.45,-1.26
-0.02,-0.12,1.03,0.91,-2.52,-1.19
-0.01,-0.12,1.03,0.91,-2.52,-1.12
-0.02,-0.12,1.03,0.98,-2.52,-1.05
-0.02,-0.12,1.03,1.05,-2.38,-1.33
-0.02,-0.12,1.02,1.19,-2.45,-1.19
-0.01,-0.12,1.03,1.05,-2.38,-1.19
-0.02,-0.12,1.02,1.19,-2.31,-1.26
-0.02,-0.12,1.03,0.98,-2.45,-1.12
-0.02,-0.12,1.03,0.91,-2.38,-1.12
-0.02,-0.12,1.03,1.05,-2.45,-0.84
-0.02,-0.12,1.03,1.12,-2.45,-1.19
-0.02,-0.12,1.03,1.19,-2.45,-1.05
-0.02,-0.12,1.03,1.26,-2.45,-1.05
-0.02,-0.12,1.03,1.12,-2.52,-1.19
-0.01,-0.12,1.03,1.12,-2.45,-1.05
-0.02,-0.12,1.03,0.91,-2.38,-0.98
-0.02,-0.12,1.03,0.7,-2.45,-1.19
-0.02,-0.12,1.03,0.7,-2.45,-1.19
-0.01,-0.12,1.02,0.63,-2.45,-1.12
-0.01,-0.12,1.02,0.7,-2.45,-1.19
-0.02,-0.12,1.03,0.98,-2.52,-0.84
-0.02,-0.12,1.03,0.98,-2.52,-1.12
-0.02,-0.12,1.03,1.12,-2.59,-1.19
-0.01,-0.12,1.03,1.12,-2.52,-1.05
-0.02,-0.12,1.03,1.12,-2.59,-1.05
-0.01,-0.12,1.03,0.98,-2.45,-1.12
-0.02,-0.12,1.03,1.12,-2.38,-1.12
-0.02,-0.12,1.03,0.98,-2.38,-1.19
-0.02,-0.12,1.02,1.12,-2.45,-1.26
-0.01,-0.12,1.03,0.98,-2.45,-1.12
-0.01,-0.12,1.03,1.05,-2.45,-0.98
-0.02,-0.12,1.03,0.98,-2.59,-1.19
-0.02,-0.12,1.03,0.84,-2.45,-0.98
-0.02,-0.12,1.03,0.84,-2.59,-1.12
-0.01,-0.12,1.03,0.84,-2.59,-1.05
-0.02,-0.12,1.03,0.98,-2.45,-1.05
-0.01,-0.12,1.03,0.98,-2.52,-1.12
-0.01,-0.12,1.03,1.05,-2.52,-1.05
-0.01,-0.12,1.03,0.98,-2.59,-0.98
-0.02,-0.12,1.03,1.05,-2.52,-1.19
-0.01,-0.12,1.03,1.05,-2.59,-0.98
-0.02,-0.12,1.02,1.12,-2.45,-0.84
-0.01,-0.12,1.03,1.05,-2.52,-1.12
-0.01,-0.12,1.03,1.19,-2.52,-1.12
-0.01,-0.12,1.03,1.19,-2.59,-0.98
-0.01,-0.12,1.03,1.05,-2.66,-1.12
-0.01,-0.12,1.03,1.05,-2.52,-1.12
-0.01,-0.12,1.03,0.84,-2.45,-1.26
-0.01,-0.12,1.03,0.91,-2.52,-0.98
-0.02,-0.12,1.03,0.84,-2.52,-1.05
-0.02,-0.12,1.03,0.98,-2.45,-1.12
-0.01,-0.12,1.03,1.05,-2.52,-0.98
-0.02,-0.12,1.03,1.12,-2.52,-1.12
-0.02,-0.12,1.03,0.91,-2.45,-0.91
-0.02,-0.12,1.03,0.84,-2.52,-1.12
-0.01,-0.12,1.03,0.98,-2.59,-1.05
-0.02,-0.12,1.03,0.98,-2.45,-1.05
-0.02,-0.12,1.02,0.91,-2.59,-1.12
-0.02,-0.12,1.02,0.91,-2.73,-1.12
-0.02,-0.12,1.03,0.91,-2.59,-1.19
-0.02,-0.12,1.03,0.98,-2.59,-1.19
-0.02,-0.12,1.03,1.05,-2.45,-1.12
-0.02,-0.12,1.03,1.05,-2.52,-1.12
-0.02,-0.12,1.03,1.05,-2.59,-1.12
-0.02,-0.12,1.03,1.05,-2.45,-0.98
-0.02,-0.12,1.03,1.05,-2.59,-1.05
-0.02,-0.12,1.03,1.05,-2.52,-0.84
-0.02,-0.12,1.03,1.12,-2.45,-0.91
-0.01,-0.12,1.03,1.12,-2.38,-1.05
-0.01,-0.12,1.03,1.05,-2.52,-1.05
-0.01,-0.12,1.03,0.98,-2.45,-1.19
-0.01,-0.12,1.03,0.98,-2.45,-1.26
-0.01,-0.12,1.03,1.05,-2.45,-1.19
-0.02,-0.12,1.03,0.98,-2.45,-1.33
-0.02,-0.12,1.03,1.12,-2.45,-1.19
-0.01,-0.12,1.03,1.19,-2.45,-1.12
-0.02,-0.12,1.03,0.98,-2.38,-1.33
-0.02,-0.12,1.02,0.98,-2.45,-1.19
-0.01,-0.12,1.02,0.98,-2.45,-1.05
-0.02,-0.12,1.02,1.19,-2.38,-1.05
-0.02,-0.12,1.03,1.33,-2.45,-1.19
-0.02,-0.12,1.03,1.26,-2.52,-1.19
-0.02,-0.12,1.03,1.33,-2.45,-0.91
-0.02,-0.12,1.03,1.19,-2.45,-1.12
-0.02,-0.12,1.03,1.19,-2.38,-1.12
-0.01,-0.12,1.03,0.98,-2.45,-1.19
-0.01,-0.12,1.03,0.84,-2.45,-1.19
-0.02,-0.12,1.03,0.91,-2.52,-1.26
-0.01,-0.12,1.03,0.84,-2.45,-1.4
-0.01,-0.12,1.03,0.91,-2.45,-1.26
-0.01,-0.12,1.03,0.98,-2.52,-0.98
-0.01,-0.12,1.03,0.91,-2.31,-1.05
-0.01,-0.12,1.03,0.84,-2.45,-1.19
-0.01,-0.12,1.03,0.91,-2.45,-1.12
-0.02,-0.12,1.03,1.12,-2.31,-1.12
-0.02,-0.12,1.03,1.19,-2.38,-1.19
-0.02,-0.12,1.03,1.26,-2.52,-1.12
-0.02,-0.12,1.02,1.26,-2.59,-1.19
-0.02,-0.12,1.03,1.33,-2.59,-1.12
-0.02,-0.12,1.03,1.19,-2.38,-0.84
-0.01,-0.12,1.02,1.19,-2.52,-1.19
-0.02,-0.12,1.03,1.05,-2.31,-1.26
-0.02,-0.12,1.03,1.12,-2.38,-1.12
-0.02,-0.12,1.03,1.19,-2.45,-1.05
-0.02,-0.12,1.03,0.98,-2.52,-1.33
-0.02,-0.12,1.03,0.98,-2.45,-0.98
-0.02,-0.12,1.03,0.84,-2.52,-1.19
-0.02,-0.12,1.03,0.7,-2.59,-1.33
-0.02,-0.12,1.03,0.77,-2.52,-1.12
-0.02,-0.12,1.03,0.91,-2.38,-1.05
-0.02,-0.12,1.02,0.84,-2.52,-1.12
-0.01,-0.12,1.02,1.05,-2.45,-1.05
-0.02,-0.12,1.03,1.26,-2.52,-1.12
-0.02,-0.12,1.03,1.19,-2.45,-1.19
-0.02,-0.12,1.03,1.12,-2.38,-1.19
-0.01,-0.12,1.03,1.19,-2.45,-0.98
-0.01,-0.12,1.03,1.26,-2.52,-1.05
-0.02,-0.12,1.03,1.05,-2.59,-1.12
-0.02,-0.12,1.03,1.12,-2.59,-0.98
-0.01,-0.12,1.03,1.05,-2.52,-1.12
-0.01,-0.12,1.03,1.12,-2.52,-1.05
-0.01,-0.12,1.03,0.91,-2.45,-1.26
-0.01,-0.12,1.03,0.91,-2.59,-0.91
-0.02,-0.12,1.03,0.84,-2.45,-1.26
-0.02,-0.12,1.03,0.98,-2.45,-1.26
-0.02,-0.12,1.03,0.98,-2.38,-1.33
-0.02,-0.12,1.03,0.98,-2.45,-1.26
-0.02,-0.12,1.03,0.91,-2.45,-1.4
-0.02,-0.12,1.03,0.84,-2.45,-1.26
-0.02,-0.12,1.03,1.05,-2.38,-1.12
-0.02,-0.12,1.03,1.05,-2.66,-1.19
-0.02,-0.12,1.02,1.12,-2.52,-1.05
-0.02,-0.12,1.02,1.19,-2.59,-0.84
-0.02,-0.12,1.03,1.33,-2.52,-0.91
-0.01,-0.12,1.03,1.26,-2.45,-1.05
-0.01,-0.12,1.03,1.26,-2.45,-0.98
-0.01,-0.12,1.03,1.12,-2.52,-1.12
-0.01,-0.12,1.03,0.98,-2.52,-1.19
-0.02,-0.12,1.03,1.05,-2.52,-1.12
-0.01,-0.12,1.03,0.84,-2.45,-1.19
-0.02,-0.12,1.03,1.05,-2.52,-1.12
-0.01,-0.12,1.03,1.12,-2.52,-1.19
-0.01,-0.12,1.02,1.26,-2.38,-1.12
-0.01,-0.12,1.03,1.12,-2.52,-1.05
-0.01,-0.12,1.03,0.91,-2.31,-1.4
-0.02,-0.12,1.03,1.05,-2.38,-1.33
-0.01,-0.12,1.03,0.98,-2.45,-1.33
-0.02,-0.12,1.03,0.84,-2.45,-1.26
-0.02,-0.12,1.03,1.05,-2.38,-1.12
-0.02,-0.12,1.02,0.98,-2.38,-1.05
-0.02,-0.12,1.03,1.12,-2.52,-1.4
-0.02,-0.12,1.03,1.19,-2.45,-1.05
-0.02,-0.12,1.03,1.19,-2.52,-1.19
-0.02,-0.12,1.03,1.05,-2.45,-0.91
-0.02,-0.12,1.03,1.12,-2.38,-0.91
-0.02,-0.12,1.03,0.98,-2.38,-1.19
-0.02,-0.12,1.03,0.98,-2.38,-1.05
-0.02,-0.12,1.03,1.05,-2.45,-1.12
-0.01,-0.12,1.03,0.91,-2.52,-1.19
-0.02,-0.12,1.03,0.98,-2.52,-1.19
-0.01,-0.12,1.03,1.12,-2.59,-1.19
-0.01,-0.12,1.03,0.98,-2.66,-1.12
-0.01,-0.12,1.03,1.12,-2.52,-1.05
-0.01,-0.12,1.03,1.05,-2.59,-1.12
-0.01,-0.12,1.03,0.98,-2.52,-1.19
-0.01,-0.12,1.03,1.19,-2.38,-1.12
-0.01,-0.12,1.03,1.12,-2.38,-1.12
-0.01,-0.12,1.03,1.12,-2.31,-1.4
-0.01,-0.12,1.03,1.12,-2.45,-1.12
-0.02,-0.12,1.03,1.05,-2.45,-1.19
-0.02,-0.12,1.03,1.05,-2.45,-1.19
-0.02,-0.12,1.03,1.05,-2.59,-1.19
-0.02,-0.12,1.03,0.98,-2.52,-1.12
-0.02,-0.12,1.03,0.91,-2.45,-1.19
-0.02,-0.12,1.02,0.98,-2.52,-0.98
-0.01,-0.12,1.03,0.98,-2.59,-1.12
-0.02,-0.12,1.03,1.05,-2.45,-0.98
-0.01,-0.12,1.03,1.05,-2.38,-1.12
-0.02,-0.12,1.03,1.05,-2.59,-1.12
-0.02,-0.12,1.03,1.12,-2.45,-1.05
-0.01,-0.12,1.03,0.98,-2.52,-1.12
-0.02,-0.12,1.03,1.19,-2.45,-1.12
-0.01,-0.12,1.02,1.05,-2.45,-1.33
-0.01,-0.12,1.03,1.19,-2.38,-1.26
-0.01,-0.12,1.03,1.12,-2.38,-1.05
-0.01,-0.12,1.03,1.05,-2.52,-1.12
-0.01,-0.12,1.03,1.12,-2.45,-1.12
-0.01,-0.12,1.03,0.91,-2.52,-0.98
-0.02,-0.12,1.03,0.98,-2.59,-1.19
-0.01,-0.12,1.03,1.05,-2.45,-0.98
-0.01,-0.12,1.03,0.98,-2.52,-0.98
-0.02,-0.12,1.03,1.05,-2.31,-1.12
-0.02,-0.12,1.03,1.05,-2.38,-1.12
-0.01,-0.12,1.03,0.98,-2.38,-1.19
-0.02,-0.12,1.03,1.26,-2.38,-1.26
-0.02,-0.12,1.03,1.05,-2.38,-1.19
-0.02,-0.12,1.03,1.12,-2.38,-1.12
-0.02,-0.12,1.03,1.19,-2.45,-0.98
-0.01,-0.12,1.03,1.05,-2.45,-1.12
-0.02,-0.12,1.03,0.91,-2.38,-1.26
-0.01,-0.12,1.02,1.12,-2.45,-0.98
-0.02,-0.12,1.02,1.05,-2.45,-1.05
-0.02,-0.12,1.02,1.12,-2.45,-1.05
-0.02,-0.12,1.03,1.05,-2.38,-0.98
-0.02,-0.12,1.03,1.19,-2.52,-1.12
-0.01,-0.12,1.03,1.05,-2.45,-1.26
-0.01,-0.12,1.03,0.98,-2.38,-1.19
-0.01,-0.12,1.03,1.12,-2.52,-1.05
-0.01,-0.12,1.03,0.91,-2.38,-1.19
-0.01,-0.12,1.03,0.98,-2.52,-1.05
-0.01,-0.12,1.03,1.19,-2.52,-1.19
-0.01,-0.12,1.03,1.12,-2.59,-1.33
-0.01,-0.12,1.03,1.19,-2.52,-1.19
-0.01,-0.12,1.03,1.05,-2.59,-1.19
-0.02,-0.12,1.03,1.12,-2.38,-1.05
-0.02,-0.12,1.03,1.05,-2.38,-1.26
-0.02,-0.12,1.03,0.98,-2.38,-1.05
-0.02,-0.12,1.03,0.98,-2.45,-1.05
-0.02,-0.12,1.03,0.98,-2.38,-1.12
-0.02,-0.12,1.03,1.05,-2.45,-1.05
-0.02,-0.12,1.03,0.91,-2.45,-1.26
-0.02,-0.12,1.03,0.98,-2.59,-1.19
-0.01,-0.12,1.03,0.77,-2.45,-1.19
-0.02,-0.12,1.03,0.84,-2.45,-0.98
-0.02,-0.12,1.03,0.98,-2.38,-0.98
-0.02,-0.12,1.03,1.05,-2.31,-0.98
-0.02,-0.12,1.03,0.84,-2.45,-1.33
-0.02,-0.12,1.03,1.12,-2.59,-0.91
-0.02,-0.12,1.03,1.19,-2.59,-1.05
-0.02,-0.12,1.03,1.12,-2.66,-1.19
-0.02,-0.12,1.03,1.19,-2.66,-1.05
-0.01,-0.12,1.03,1.19,-2.66,-0.98
-0.01,-0.12,1.03,1.19,-2.52,-1.12
-0.01,-0.12,1.03,1.19,-2.52,-0.98
-0.01,-0.12,1.03,1.12,-2.45,-1.19
-0.02,-0.12,1.03,1.12,-2.38,-1.33
-0.02,-0.12,1.02,0.98,-2.45,-1.19
-0.01,-0.12,1.03,0.91,-2.45,-1.12
-0.01,-0.12,1.03,0.98,-2.31,-1.19
-0.02,-0.12,1.03,0.84,-2.52,-1.19
-0.02,-0.12,1.03,0.91,-2.52,-1.12
-0.02,-0.12,1.03,1.05,-2.59,-1.12
-0.01,-0.12,1.02,1.05,-2.59,-1.05
-0.02,-0.12,1.03,0.98,-2.59,-1.12
-0.01,-0.12,1.03,1.05,-2.45,-1.05
-0.02,-0.12,1.03,1.12,-2.45,-1.05
-0.01,-0.12,1.03,1.12,-2.45,-1.05
-0.01,-0.12,1.03,1.19,-2.38,-1.12
-0.02,-0.12,1.03,1.26,-2.45,-1.26
-0.01,-0.12,1.03,0.98,-2.45,-1.12
-0.01,-0.12,1.03,1.12,-2.45,-1.12
-0.01,-0.12,1.03,0.98,-2.38,-1.05
-0.01,-0.12,1.03,1.05,-2.31,-0.98
-0.02,-0.12,1.03,0.98,-2.38,-1.26
-0.02,-0.12,1.03,0.91,-2.38,-1.12
-0.02,-0.12,1.03,0.98,-2.45,-1.26
-0.02,-0.12,1.03,0.91,-2.38,-1.05
-0.02,-0.12,1.03,0.91,-2.38,-1.19
-0.01,-0.12,1.03,0.84,-2.38,-1.26
-0.02,-0.12,1.03,0.98,-2.45,-0.91
-0.02,-0.12,1.03,1.05,-2.45,-1.12
-0.02,-0.12,1.02,1.12,-2.59,-1.12
-0.02,-0.12,1.03,1.05,-2.52,-1.12
-0.02,-0.12,1.03,1.12,-2.59,-1.12
-0.02,-0.12,1.03,1.19,-2.59,-1.05
-0.01,-0.12,1.03,1.05,-2.38,-0.84
-0.01,-0.12,1.03,1.05,-2.45,-1.05
-0.01,-0.12,1.03,1.05,-2.45,-1.12
-0.02,-0.12,1.03,1.12,-2.45,-1.19
-0.02,-0.12,1.03,1.05,-2.45,-1.19
-0.02,-0.12,1.03,1.26,-2.52,-0.91
-0.02,-0.12,1.03,1.12,-2.45,-1.19
-0.02,-0.12,1.03,0.98,-2.45,-1.19
-0.02,-0.12,1.03,1.05,-2.45,-1.12
-0.01,-0.12,1.03,0.98,-2.38,-1.19
-0.02,-0.12,1.03,0.98,-2.31,-0.91
-0.01,-0.12,1.03,0.84,-2.38,-1.19
-0.02,-0.12,1.03,0.98,-2.38,-1.05
-0.02,-0.12,1.02,0.98,-2.38,-1.19
-0.01,-0.12,1.03,0.91,-2.31,-1.12
-0.01,-0.12,1.03,0.98,-2.38,-1.26
-0.01,-0.12,1.03,0.91,-2.31,-1.19
-0.01,-0.12,1.03,1.05,-2.38,-0.98
-0.02,-0.12,1.03,0.84,-2.31,-1.19
-0.01,-0.12,1.03,0.91,-2.45,-1.12
-0.02,-0.12,1.03,1.12,-2.59,-1.05
-0.02,-0.12,1.02,1.12,-2.59,-1.12
-0.02,-0.12,1.03,1.12,-2.59,-1.12
-0.02,-0.12,1.03,1.19,-2.59,-1.19
-0.01,-0.12,1.02,1.12,-2.45,-1.33
-0.02,-0.12,1.02,1.19,-2.45,-1.19
-0.01,-0.12,1.03,1.19,-2.52,-1.19
-0.01,-0.12,1.03,1.19,-2.52,-0.98
-0.02,-0.12,1.03,1.05,-2.45,-0.98
-0.02,-0.12,1.03,0.98,-2.45,-0.91
-0.02,-0.12,1.03,0.91,-2.59,-0.98
-0.02,-0.12,1.03,0.98,-2.52,-0.84
-0.02,-0.12,1.03,0.98,-2.66,-1.12
-0.02,-0.12,1.03,0.91,-2.66,-1.05
-0.02,-0.12,1.03,0.77,-2.38,-0.91
-0.02,-0.12,1.03,0.63,-2.38,-1.05
-0.02,-0.12,1.02,0.7,-2.45,-1.12
-0.02,-0.12,1.02,0.91,-2.59,-0.91
-0.02,-0.12,1.02,1.05,-2.52,-1.05
-0.01,-0.12,1.02,1.19,-2.59,-1.19
-0.01,-0.12,1.03,1.12,-2.59,-1.19
-0.01,-0.12,1.03,1.19,-2.45,-0.98
-0.01,-0.12,1.03,1.05,-2.45,-1.05
-0.01,-0.12,1.03,1.12,-2.38,-0.98
-0.02,-0.12,1.03,1.12,-2.45,-1.05
-0.02,-0.12,1.02,0.91,-2.52,-1.4
-0.02,-0.12,1.03,1.12,-2.66,-1.05
-0.02,-0.12,1.03,1.33,-2.52,-1.12
-0.02,-0.12,1.03,1.19,-2.52,-1.12
-0.01,-0.12,1.03,0.98,-2.45,-1.12
-0.02,-0.12,1.03,0.98,-2.45,-1.33
-0.02,-0.12,1.03,0.91,-2.45,-1.12
-0.02,-0.12,1.03,0.98,-2.45,-0.98
-0.02,-0.12,1.03,0.77,-2.45,-0.98
-0.02,-0.12,1.02,0.91,-2.52,-1.05
-0.02,-0.12,1.02,0.98,-2.59,-0.91
-0.02,-0.12,1.02,0.91,-2.52,-1.05
-0.02,-0.12,1.03,1.12,-2.59,-0.98
-0.02,-0.12,1.03,1.05,-2.59,-1.12
-0.02,-0.12,1.03,0.98,-2.52,-1.19
-0.01,-0.12,1.03,1.05,-2.52,-1.12
-0.02,-0.12,1.03,0.98,-2.59,-1.05
-0.01,-0.12,1.03,0.98,-2.45,-1.19
-0.02,-0.12,1.03,1.12,-2.45,-1.12
-0.01,-0.12,1.02,1.26,-2.38,-1.05
-0.02,-0.12,1.03,1.12,-2.52,-1.12
-0.01,-0.12,1.03,0.98,-2.45,-1.12
-0.01,-0.12,1.03,1.12,-2.52,-1.12
-0.01,-0.12,1.03,1.05,-2.52,-1.19
-0.02,-0.12,1.03,0.98,-2.45,-1.19
-0.01,-0.12,1.03,0.98,-2.38,-1.19
-0.01,-0.12,1.03,0.91,-2.45,-1.19
-0.02,-0.12,1.02,1.05,-2.38,-1.4
-0.02,-0.12,1.03,1.05,-2.52,-1.26
-0.01,-0.12,1.03,1.05,-2.52,-1.19
-0.02,-0.12,1.03,1.05,-2.45,-1.12
-0.02,-0.12,1.03,1.05,-2.59,-1.05
-0.02,-0.12,1.03,1.12,-2.52,-1.05
-0.02,-0.12,1.03,0.98,-2.38,-1.19
-0.02,-0.12,1.02,1.12,-2.38,-1.26
-0.02,-0.12,1.03,1.12,-2.52,-1.19
-0.02,-0.12,1.03,1.19,-2.52,-1.12
-0.02,-0.12,1.03,1.12,-2.52,-1.26
-0.02,-0.12,1.03,1.19,-2.45,-1.19
-0.02,-0.12,1.03,0.91,-2.52,-1.4
-0.02,-0.12,1.03,1.05,-2.31,-1.19
-0.02,-0.12,1.03,0.98,-2.45,-1.12
-0.02,-0.12,1.03,0.98,-2.38,-1.05
-0.02,-0.12,1.03,1.05,-2.45,-1.05
-0.02,-0.12,1.03,1.05,-2.45,-1.19
-0.02,-0.12,1.03,0.98,-2.59,-1.12
-0.02,-0.12,1.03,1.12,-2.45,-1.19
-0.01,-0.12,1.03,1.05,-2.59,-1.12
-0.01,-0.12,1.03,1.12,-2.66,-1.19
-0.01,-0.12,1.03,1.05,-2.38,-1.26
-0.01,-0.12,1.03,1.05,-2.45,-1.19
-0.02,-0.12,1.03,1.12,-2.38,-1.12
-0.02,-0.12,1.03,1.12,-2.52,-1.05
-0.02,-0.12,1.03,1.19,-2.38,-1.26
-0.02,-0.12,1.03,1.19,-2.52,-1.05
-0.02,-0.12,1.03,1.19,-2.52,-0.98
-0.02,-0.12,1.03,1.12,-2.45,-1.05
-0.01,-0.12,1.03,1.19,-2.38,-1.19
-0.01,-0.12,1.03,1.12,-2.45,-1.19
-0.01,-0.12,1.03,0.91,-2.45,-1.12
-0.02,-0.12,1.03,0.91,-2.52,-1.19
-0.02,-0.12,1.03,0.98,-2.45,-1.26
-0.02,-0.12,1.03,0.98,-2.45,-0.91
-0.02,-0.12,1.03,0.91,-2.45,-1.12
-0.02,-0.12,1.03,0.98,-2.52,-1.05
-0.02,-0.12,1.03,1.05,-2.52,-1.26
-0.01,-0.12,1.03,1.05,-2.45,-1.26
-0.01,-0.12,1.03,1.26,-2.52,-0.98
-0.01,-0.12,1.03,1.05,-2.45,-1.12
-0.02,-0.12,1.03,0.84,-2.38,-1.12
-0.02,-0.12,1.02,0.91,-2.52,-1.19
-0.02,-0.12,1.02,1.12,-2.52,-0.98
-0.02,-0.12,1.02,1.12,-2.59,-1.19
-0.01,-0.12,1.02,1.12,-2.66,-1.19
-0.02,-0.12,1.03,1.26,-2.52,-1.19
-0.01,-0.12,1.03,1.12,-2.52,-1.05
-0.01,-0.12,1.03,0.98,-2.52,-1.19
-0.02,-0.12,1.03,1.05,-2.45,-1.05
-0.02,-0.12,1.03,1.05,-2.59,-1.12
-0.02,-0.12,1.03,1.05,-2.59,-1.05
-0.01,-0.12,1.03,1.12,-2.52,-1.12
-0.02,-0.12,1.03,1.05,-2.45,-1.19
-0.02,-0.12,1.03,1.12,-2.52,-1.26
-0.02,-0.12,1.03,1.12,-2.38,-1.26
-0.01,-0.12,1.03,1.05,-2.45,-1.19
-0.02,-0.12,1.03,1.05,-2.52,-0.91
-0.02,-0.12,1.03,0.98,-2.59,-0.91
-0.02,-0.12,1.02,1.05,-2.59,-1.05
-0.02,-0.12,1.03,1.12,-2.59,-1.05
-0.01,-0.12,1.03,1.19,-2.52,-1.05
-0.01,-0.12,1.03,1.12,-2.59,-1.12
-0.01,-0.12,1.03,1.05,-2.59,-1.05
-0.02,-0.12,1.03,1.05,-2.45,-0.91
-0.01,-0.12,1.03,0.98,-2.38,-1.19
-0.02,-0.12,1.03,0.91,-2.31,-1.33
-0.02,-0.12,1.02,0.98,-2.38,-1.19
-0.01,-0.12,1.02,1.12,-2.38,-1.05
-0.02,-0.12,1.03,1.12,-2.45,-1.26
-0.02,-0.12,1.03,1.12,-2.52,-1.05
-0.02,-0.12,1.03,1.19,-2.59,-1.12
-0.02,-0.12,1.03,0.91,-2.59,-1.19
-0.01,-0.12,1.03,1.05,-2.45,-1.19
-0.01,-0.12,1.03,0.84,-2.59,-1.26
-0.01,-0.12,1.03,0.98,-2.38,-0.98
-0.02,-0.12,1.02,1.19,-2.45,-1.05
-0.01,-0.12,1.02,1.26,-2.38,-1.19
-0.02,-0.12,1.03,1.19,-2.45,-1.12
-0.02,-0.12,1.03,1.19,-2.38,-1.12
-0.01,-0.12,1.03,1.12,-2.38,-1.19
-0.01,-0.12,1.03,1.12,-2.52,-1.26
-0.01,-0.12,1.03,1.12,-2.45,-1.26
-0.01,-0.12,1.03,1.05,-2.59,-1.05
-0.01,-0.12,1.03,0.98,-2.59,-1.05
-0.01,-0.12,1.03,1.12,-2.52,-1.12
-0.02,-0.12,1.03,1.12,-2.45,-0.98
-0.01,-0.12,1.03,1.05,-2.38,-1.12
-0.02,-0.12,1.03,0.84,-2.38,-1.26
-0.02,-0.12,1.03,0.98,-2.38,-1.05
-0.02,-0.12,1.03,0.84,-2.31,-1.33
-0.02,-0.12,1.03,0.91,-2.38,-1.19
-0.02,-0.12,1.03,0.98,-2.45,-1.26
-0.02,-0.12,1.02,1.05,-2.45,-1.12
-0.02,-0.12,1.03,0.91,-2.59,-1.12
-0.02,-0.12,1.03,0.98,-2.52,-1.19
-0.01,-0.12,1.03,0.98,-2.52,-0.98
-0.01,-0.12,1.03,0.98,-2.52,-1.12
-0.02,-0.12,1.03,1.05,-2.45,-1.12
-0.01,-0.12,1.03,1.12,-2.45,-1.05
-0.01,-0.12,1.03,1.19,-2.52,-1.26
-0.01,-0.12,1.03,1.19,-2.52,-1.26
-0.01,-0.12,1.03,1.19,-2.52,-1.12
-0.01,-0.12,1.03,1.05,-2.45,-1.19
-0.01,-0.12,1.03,0.91,-2.52,-1.12
-0.02,-0.12,1.03,0.84,-2.59,-1.12
-0.02,-0.12,1.03,0.98,-2.45,-1.05
-0.02,-0.12,1.03,0.98,-2.52,-1.26
-0.02,-0.12,1.03,0.98,-2.45,-1.26
-0.02,-0.12,1.03,1.12,-2.52,-0.98
-0.01,-0.12,1.03,1.12,-2.52,-0.98
-0.02,-0.12,1.03,0.98,-2.38,-1.05
-0.02,-0.12,1.03,0.84,-2.52,-1.19
-0.02,-0.12,1.03,0.77,-2.52,-1.26
-0.02,-0.12,1.03,0.77,-2.45,-1.12
-0.02,-0.12,1.02,1.05,-2.52,-1.05
-0.02,-0.12,1.02,0.84,-2.59,-1.4
-0.02,-0.12,1.03,0.91,-2.59,-1.12
-0.02,-0.12,1.03,1.05,-2.59,-1.12
-0.01,-0.12,1.03,1.12,-2.59,-0.98
-0.01,-0.12,1.03,1.05,-2.52,-1.19
-0.01,-0.12,1.03,0.91,-2.52,-1.12
-0.02,-0.12,1.03,1.19,-2.45,-1.19
-0.01,-0.12,1.03,1.05,-2.45,-1.12
-0.02,-0.12,1.03,0.98,-2.45,-1.33
-0.01,-0.12,1.02,1.19,-2.45,-1.26
-0.02,-0.12,1.03,1.19,-2.38,-1.19
-0.01,-0.12,1.03,1.19,-2.52,-1.19
-0.02,-0.12,1.03,1.19,-2.52,-1.19
-0.01,-0.12,1.03,1.05,-2.45,-1.33
-0.02,-0.12,1.03,0.91,-2.45,-1.33
-0.02,-0.12,1.03,0.91,-2.38,-1.12
-0.01,-0.12,1.03,0.84,-2.45,-1.26
-0.01,-0.12,1.03,0.98,-2.38,-1.19
-0.01,-0.12,1.03,1.05,-2.45,-1.12
-0.01,-0.12,1.03,1.05,-2.45,-1.12
-0.02,-0.12,1.03,1.19,-2.45,-1.12
-0.01,-0.12,1.03,1.12,-2.45,-1.19
-0.01,-0.12,1.03,1.05,-2.38,-1.26
-0.02,-0.12,1.03,1.12,-2.52,-1.33
-0.02,-0.12,1.03,1.26,-2.45,-1.19
-0.01,-0.12,1.03,1.12,-2.45,-1.19
-0.02,-0.12,1.03,1.26,-2.38,-1.19
-0.02,-0.12,1.03,0.98,-2.45,-1.26
-0.02,-0.12,1.03,1.05,-2.31,-1.19
-0.02,-0.12,1.03,0.84,-2.38,-1.19
-0.02,-0.12,1.03,0.98,-2.38,-1.12
-0.02,-0.12,1.03,0.98,-2.52,-1.05
-0.02,-0.12,1.03,0.98,-2.45,-0.98
-0.02,-0.12,1.03,1.12,-2.52,-0.98
-0.02,-0.12,1.03,0.84,-2.59,-1.19
-0.02,-0.12,1.03,0.7,-2.59,-1.12
-0.02,-0.12,1.03,0.84,-2.59,-0.98
-0.02,-0.12,1.02,1.05,-2.59,-0.98
-0.01,-0.12,1.02,1.19,-2.52,-1.05
-0.01,-0.12,1.02,1.26,-2.59,-1.26
-0.01,-0.12,1.03,1.33,-2.45,-1.19
-0.01,-0.12,1.03,1.33,-2.45,-1.12
-0.01,-0.12,1.03,1.26,-2.52,-1.26
-0.01,-0.12,1.03,1.33,-2.45,-1.26
-0.02,-0.12,1.03,1.19,-2.59,-1.12
-0.02,-0.12,1.03,0.98,-2.45,-1.4
-0.01,-0.12,1.03,0.98,-2.45,-1.19
-0.01,-0.12,1.03,0.91,-2.52,-1.33
-0.02,-0.12,1.03,0.77,-2.31,-1.26
-0.02,-0.12,1.03,0.84,-2.45,-1.12
-0.01,-0.12,1.03,0.84,-2.45,-1.19
-0.02,-0.12,1.03,0.91,-2.45,-1.26
-0.02,-0.12,1.03,0.91,-2.45,-0.98
-0.02,-0.12,1.03,0.91,-2.45,-0.98
-0.02,-0.12,1.03,1.19,-2.38,-1.05
-0.02,-0.12,1.03,1.05,-2.45,-1.19
-0.01,-0.12,1.03,1.12,-2.52,-1.19
-0.01,-0.12,1.03,1.12,-2.45,-1.26
-0.02,-0.12,1.02,1.19,-2.52,-1.19
-0.01,-0.12,1.03,1.19,-2.59,-1.12
-0.02,-0.12,1.03,1.33,-2.59,-1.12
-0.01,-0.12,1.02,1.19,-2.73,-0.98
-0.01,-0.12,1.03,1.4,-2.66,-0.91
-0.01,-0.12,1.03,1.05,-2.45,-0.91
-0.02,-0.12,1.03,1.05,-2.45,-1.05
-0.02,-0.12,1.03,0.98,-2.59,-0.98
-0.02,-0.12,1.03,0.98,-2.45,-0.98
-0.02,-0.12,1.03,0.84,-2.52,-1.12
-0.02,-0.12,1.03,0.7,-2.52,-1.19
-0.02,-0.12,1.03,0.56,-2.52,-1.33
-0.02,-0.12,1.03,0.49,-2.38,-1.47
-0.02,-0.12,1.03,0.49,-2.38,-1.4
-0.02,-0.12,1.02,0.63,-2.38,-1.33
-0.02,-0.12,1.02,0.84,-2.38,-1.05
-0.02,-0.12,1.02,1.12,-2.38,-1.19
-0.01,-0.12,1.02,1.19,-2.52,-0.91
-0.01,-0.12,1.02,1.61,-2.66,-0.98
-0.01,-0.12,1.03,1.68,-2.59,-0.84
-0.01,-0.12,1.03,1.75,-2.66,-0.98
-0.01,-0.12,1.03,1.61,-2.66,-0.98
-0.01,-0.12,1.03,1.33,-2.52,-1.26
-0.01,-0.12,1.03,1.05,-2.52,-0.98
-0.01,-0.12,1.03,0.84,-2.38,-1.26
-0.01,-0.12,1.03,0.91,-2.24,-1.19
-0.01,-0.12,1.03,0.84,-2.31,-1.19
-0.02,-0.12,1.03,0.7,-2.31,-1.19
-0.02,-0.12,1.03,0.7,-2.38,-1.26
-0.02,-0.12,1.03,0.63,-2.38,-1.26
-0.02,-0.12,1.03,0.7,-2.52,-1.19
-0.02,-0.12,1.03,0.7,-2.38,-1.19
-0.02,-0.12,1.03,0.91,-2.31,-1.05
-0.02,-0.12,1.02,1.12,-2.38,-0.77
-0.02,-0.12,1.02,1.33,-2.45,-1.05
-0.02,-0.12,1.02,1.19,-2.45,-0.98
-0.02,-0.12,1.03,1.33,-2.52,-0.98
-0.02,-0.12,1.03,1.47,-2.59,-1.12
-0.02,-0.12,1.03,1.4,-2.52,-1.19
-0.01,-0.12,1.03,1.26,-2.52,-1.05
-0.01,-0.12,1.03,1.12,-2.52,-0.98
-0.01,-0.12,1.03,1.12,-2.38,-1.12
-0.01,-0.12,1.03,1.05,-2.59,-1.19
-0.01,-0.12,1.03,0.98,-2.45,-1.19
-0.01,-0.12,1.03,1.05,-2.52,-1.05
-0.01,-0.12,1.03,1.05,-2.45,-1.4
-0.01,-0.12,1.03,1.05,-2.38,-1.26
-0.01,-0.12,1.03,1.12,-2.45,-1.26
-0.01,-0.12,1.03,0.91,-2.38,-1.19
-0.01,-0.12,1.03,0.84,-2.45,-1.19
-0.02,-0.12,1.03,0.77,-2.45,-1.26
-0.01,-0.12,1.03,1.05,-2.38,-1.26
-0.01,-0.12,1.03,0.98,-2.38,-1.12
-0.02,-0.12,1.02,1.19,-2.38,-0.98
-0.02,-0.12,1.02,1.19,-2.38,-1.12
-0.02,-0.12,1.02,1.19,-2.38,-1.19
-0.02,-0.12,1.03,1.12,-2.38,-1.12
-0.02,-0.12,1.03,1.12,-2.38,-1.12
-0.02,-0.12,1.03,0.98,-2.52,-1.26
-0.02,-0.12,1.03,0.98,-2.52,-0.98
-0.02,-0.12,1.03,1.12,-2.45,-1.05
-0.01,-0.12,1.03,1.12,-2.45,-1.12
-0.02,-0.12,1.03,1.33,-2.52,-1.12
-0.02,-0.12,1.03,1.19,-2.52,-1.05
-0.02,-0.12,1.03,1.19,-2.52,-1.12
-0.02,-0.12,1.03,1.12,-2.45,-0.91
-0.02,-0.12,1.03,1.05,-2.38,-0.91
-0.02,-0.12,1.03,0.84,-2.38,-1.12
-0.01,-0.12,1.03,0.91,-2.45,-1.05
-0.01,-0.12,1.03,0.98,-2.52,-1.19
-0.01,-0.12,1.03,0.98,-2.59,-0.98
-0.01,-0.12,1.03,1.12,-2.59,-1.05
-0.01,-0.12,1.03,1.26,-2.66,-1.05
-0.01,-0.12,1.03,1.12,-2.73,-1.12
-0.02,-0.12,1.03,1.19,-2.59,-1.05
-0.02,-0.12,1.03,1.05,-2.52,-1.19
-0.01,-0.12,1.03,1.19,-2.31,-1.19
-0.02,-0.12,1.03,1.12,-2.38,-1.4
-0.02,-0.12,1.03,1.26,-2.38,-1.05
-0.02,-0.12,1.03,1.12,-2.38,-1.05
-0.02,-0.12,1.03,1.05,-2.59,-0.98
-0.02,-0.12,1.03,0.98,-2.52,-1.12
-0.02,-0.12,1.03,0.98,-2.66,-0.98
-0.02,-0.12,1.03,0.98,-2.66,-0.98
-0.02,-0.12,1.03,0.77,-2.59,-1.12
-0.02,-0.12,1.03,0.7,-2.59,-1.12
-0.02,-0.12,1.02,0.7,-2.59,-1.12
-0.02,-0.12,1.03,0.91,-2.52,-0.84
-0.02,-0.12,1.03,0.98,-2.45,-0.98
-0.02,-0.12,1.02,1.05,-2.59,-1.12
-0.02,-0.12,1.03,1.05,-2.66,-0.98
-0.02,-0.12,1.03,1.05,-2.52,-1.05
-0.02,-0.12,1.03,1.26,-2.59,-1.19
-0.01,-0.12,1.03,1.12,-2.45,-1.05
-0.01,-0.12,1.03,1.05,-2.45,-0.91
-0.02,-0.12,1.03,1.12,-2.59,-0.91
-0.01,-0.12,1.03,1.12,-2.59,-0.91
-0.02,-0.12,1.02,1.19,-2.66,-1.05
-0.01,-0.12,1.02,1.12,-2.59,-1.12
-0.01,-0.12,1.03,1.12,-2.52,-1.26
-0.01,-0.12,1.03,1.12,-2.38,-1.19
-0.01,-0.12,1.03,1.05,-2.24,-1.26
-0.01,-0.12,1.03,0.98,-2.24,-1.26
-0.01,-0.12,1.03,0.91,-2.38,-1.19
-0.01,-0.12,1.03,0.91,-2.45,-1.12
-0.01,-0.12,1.03,0.98,-2.52,-1.05
-0.02,-0.12,1.03,0.98,-2.38,-1.26
-0.01,-0.12,1.03,1.05,-2.45,-1.19
-0.01,-0.12,1.03,0.91,-2.52,-1.33
-0.02,-0.12,1.03,0.91,-2.45,-1.19
-0.01,-0.12,1.03,1.05,-2.31,-1.4
-0.01,-0.12,1.03,0.91,-2.31,-1.12
-0.01,-0.12,1.03,1.12,-2.38,-1.26
-0.02,-0.12,1.02,1.05,-2.38,-1.4
-0.02,-0.12,1.03,1.19,-2.38,-1.12
-0.02,-0.12,1.03,1.26,-2.45,-1.19
-0.02,-0.12,1.03,1.19,-2.52,-1.19
-0.02,-0.12,1.03,1.19,-2.31,-1.26
-0.02,-0.12,1.03,1.12,-2.45,-1.26
-0.02,-0.12,1.03,1.26,-2.45,-1.05
-0.01,-0.12,1.03,1.05,-2.45,-1.4
-0.02,-0.12,1.03,0.91,-2.45,-1.4
-0.02,-0.12,1.03,0.98,-2.45,-1.33
-0.01,-0.12,1.03,0.77,-2.31,-1.26
-0.02,-0.12,1.03,0.91,-2.38,-1.19
-0.02,-0.12,1.03,0.84,-2.52,-1.26
-0.02,-0.11,1.03,0.98,-2.45,-1.19
-0.02,-0.12,1.03,1.12,-2.38,-1.19
-0.02,-0.12,1.03,1.12,-2.59,-1.19
-0.02,-0.12,1.03,1.05,-2.45,-1.12
-0.02,-0.12,1.03,0.98,-2.59,-0.84
-0.02,-0.12,1.03,0.91,-2.45,-1.05
-0.02,-0.12,1.03,0.77,-2.52,-0.77
-0.02,-0.12,1.02,0.77,-2.45,-0.98
-0.02,-0.12,1.02,0.77,-2.52,-0.98
-0.02,-0.12,1.02,1.05,-2.52,-0.7
-0.02,-0.12,1.02,0.98,-2.52,-0.98
-0.02,-0.12,1.02,1.19,-2.66,-0.84
-0.02,-0.12,1.03,1.19,-2.59,-1.12
-0.01,-0.12,1.03,1.4,-2.66,-0.98
-0.01,-0.12,1.03,1.19,-2.59,-1.12
-0.01,-0.12,1.03,1.4,-2.45,-1.05
-0.01,-0.12,1.03,1.12,-2.52,-1.12
-0.01,-0.12,1.03,1.19,-2.52,-1.12
-0.01,-0.12,1.03,1.26,-2.38,-1.05
-0.01,-0.12,1.03,1.19,-2.45,-1.26
-0.01,-0.12,1.03,1.05,-2.38,-1.12
-0.02,-0.12,1.03,0.98,-2.52,-1.26
-0.02,-0.12,1.03,0.84,-2.52,-1.12
-0.02,-0.12,1.03,0.77,-2.52,-1.19
-0.01,-0.12,1.03,0.84,-2.45,-1.12
-0.02,-0.12,1.03,0.7,-2.52,-1.19
-0.01,-0.12,1.03,0.98,-2.59,-1.12
-0.02,-0.12,1.03,1.12,-2.52,-1.19
-0.02,-0.12,1.03,1.12,-2.52,-1.05
-0.01,-0.12,1.03,1.33,-2.52,-1.26
-0.02,-0.12,1.03,1.26,-2.45,-1.12
-0.01,-0.12,1.03,1.33,-2.45,-1.19
-0.01,-0.12,1.03,1.33,-2.52,-1.19
-0.02,-0.12,1.03,1.26,-2.45,-1.12
-0.02,-0.12,1.03,1.12,-2.31,-0.98
-0.01,-0.12,1.03,0.77,-2.45,-0.91
-0.02,-0.12,1.03,0.63,-2.52,-1.4
-0.02,-0.12,1.02,0.77,-2.52,-1.19
-0.02,-0.12,1.02,0.91,-2.52,-0.98
-0.02,-0.12,1.02,0.91,-2.52,-1.26
-0.01,-0.12,1.03,1.19,-2.59,-0.98
-0.02,-0.12,1.03,0.98,-2.52,-0.98
-0.02,-0.12,1.03,1.05,-2.45,-0.98
-0.01,-0.12,1.03,0.91,-2.31,-1.26
-0.02,-0.12,1.03,1.12,-2.45,-0.98
-0.02,-0.12,1.02,1.12,-2.38,-1.19
-0.02,-0.12,1.02,1.4,-2.45,-0.98
-0.01,-0.12,1.03,1.26,-2.38,-1.12
-0.01,-0.12,1.03,1.33,-2.52,-1.05
-0.01,-0.12,1.03,1.26,-2.38,-1.05
-0.01,-0.12,1.03,0.91,-2.38,-1.26
-0.01,-0.12,1.03,0.91,-2.45,-1.12
-0.01,-0.12,1.03,0.98,-2.31,-1.12
-0.02,-0.12,1.02,0.91,-2.45,-1.26
-0.02,-0.12,1.02,1.19,-2.45,-1.12
-0.02,-0.12,1.03,1.19,-2.45,-1.33
-0.02,-0.12,1.03,1.12,-2.45,-1.26
-0.01,-0.12,1.03,1.05,-2.31,-1.12
-0.02,-0.12,1.03,0.98,-2.38,-1.19
-0.01,-0.12,1.03,0.98,-2.38,-1.19
-0.02,-0.12,1.02,1.05,-2.52,-1.19
-0.02,-0.12,1.02,0.98,-2.45,-1.19
-0.02,-0.12,1.02,1.19,-2.59,-1.19
-0.02,-0.12,1.03,1.12,-2.52,-1.33
-0.02,-0.12,1.03,1.12,-2.59,-1.12
-0.02,-0.12,1.03,1.19,-2.52,-1.26
-0.02,-0.12,1.03,0.98,-2.38,-0.98
-0.02,-0.12,1.03,0.98,-2.31,-1.12
-0.02,-0.12,1.03,0.84,-2.31,-1.19
-0.02,-0.12,1.02,0.91,-2.45,-1.05
-0.02,-0.12,1.02,0.91,-2.52,-1.05
-0.02,-0.12,1.03,0.98,-2.59,-0.91
-0.02,-0.12,1.03,0.98,-2.66,-0.98
-0.01,-0.12,1.02,0.98,-2.59,-0.91
-0.01,-0.12,1.03,0.98,-2.66,-1.19
-0.01,-0.12,1.03,1.12,-2.52,-1.19
-0.01,-0.11,1.03,1.19,-2.45,-1.19
-0.01,-0.12,1.03,1.26,-2.45,-1.19
-0.01,-0.12,1.03,1.33,-2.45,-1.05
-0.01,-0.12,1.03,1.05,-2.45,-1.12
-0.01,-0.12,1.03,1.12,-2.52,-1.19
-0.01,-0.12,1.03,0.98,-2.31,-1.33
-0.01,-0.12,1.03,0.91,-2.31,-1.33
-0.02,-0.12,1.03,0.98,-2.38,-1.26
-0.02,-0.12,1.03,0.91,-2.52,-1.19
-0.02,-0.12,1.03,0.84,-2.38,-1.19
-0.02,-0.12,1.03,0.84,-2.38,-1.19
-0.02,-0.12,1.03,0.84,-2.45,-1.26
-0.02,-0.12,1.03,0.77,-2.45,-1.12
-0.02,-0.12,1.03,0.91,-2.45,-1.05
-0.02,-0.12,1.02,0.91,-2.45,-0.98
-0.02,-0.12,1.02,1.05,-2.52,-1.05
-0.02,-0.12,1.03,1.19,-2.52,-1.12
-0.02,-0.12,1.03,1.12,-2.52,-1.05
-0.02,-0.12,1.03,1.05,-2.59,-0.98
-0.01,-0.12,1.03,1.05,-2.52,-1.19
-0.01,-0.12,1.03,0.98,-2.59,-1.12
-0.02,-0.12,1.03,1.05,-2.59,-1.12
-0.02,-0.12,1.03,1.26,-2.59,-0.98
-0.02,-0.12,1.03,1.19,-2.66,-1.12
-0.01,-0.12,1.03,1.19,-2.66,-1.12
-0.01,-0.12,1.03,1.12,-2.45,-1.12
-0.01,-0.12,1.03,1.12,-2.38,-1.05
-0.01,-0.12,1.03,0.91,-2.45,-1.19
-0.01,-0.12,1.03,0.98,-2.38,-1.19
-0.01,-0.12,1.03,0.98,-2.38,-1.12
-0.01,-0.12,1.03,0.84,-2.52,-1.26
-0.02,-0.12,1.03,0.77,-2.59,-1.33
-0.02,-0.12,1.03,0.91,-2.59,-1.12
-0.02,-0.12,1.03,1.05,-2.45,-1.19
-0.01,-0.12,1.02,1.05,-2.45,-1.26
-0.01,-0.12,1.02,1.19,-2.45,-0.91
-0.02,-0.12,1.02,1.19,-2.45,-0.98
-0.02,-0.12,1.02,1.33,-2.52,-0.98
-0.01,-0.12,1.03,1.33,-2.59,-1.12
-0.02,-0.12,1.03,1.26,-2.45,-1.05
-0.01,-0.12,1.03,1.26,-2.59,-1.05
-0.02,-0.12,1.03,1.19,-2.45,-1.19
-0.02,-0.12,1.03,1.19,-2.52,-1.05
-0.02,-0.12,1.03,1.19,-2.45,-0.91
-0.01,-0.12,1.03,1.12,-2.45,-1.26
-0.02,-0.12,1.03,0.98,-2.45,-1.12
-0.02,-0.12,1.03,0.98,-2.38,-1.19
-0.02,-0.12,1.02,0.98,-2.45,-1.19
-0.02,-0.12,1.02,1.05,-2.38,-1.12
-0.02,-0.12,1.03,1.05,-2.45,-1.12
-0.02,-0.12,1.03,1.05,-2.31,-0.91
-0.02,-0.12,1.03,1.12,-2.45,-1.05
-0.01,-0.12,1.03,1.12,-2.52,-1.05
-0.02,-0.12,1.03,0.98,-2.45,-1.12
-0.02,-0.12,1.03,0.98,-2.59,-1.12
-0.02,-0.12,1.03,0.91,-2.59,-1.12
-0.02,-0.12,1.02,1.05,-2.59,-1.12
-0.02,-0.12,1.02,1.12,-2.59,-0.91
-0.02,-0.12,1.03,1.05,-2.59,-0.98
-0.02,-0.12,1.03,1.05,-2.66,-1.05
-0.02,-0.12,1.03,1.12,-2.59,-1.19
-0.01,-0.12,1.03,1.19,-2.66,-0.98
-0.02,-0.12,1.03,1.05,-2.59,-1.05
-0.02,-0.12,1.03,0.98,-2.52,-1.19
-0.02,-0.12,1.03,0.98,-2.52,-1.26
-0.02,-0.12,1.03,0.91,-2.45,-0.91
-0.02,-0.12,1.03,0.84,-2.59,-1.05
-0.01,-0.12,1.03,0.77,-2.52,-1.26
-0.01,-0.12,1.03,0.84,-2.38,-1.05
-0.02,-0.12,1.02,0.98,-2.45,-1.26
-0.02,-0.12,1.02,0.98,-2.59,-1.05
-0.01,-0.12,1.02,0.98,-2.45,-1.12
-0.01,-0.12,1.02,1.19,-2.45,-1.12
-0.01,-0.12,1.03,1.19,-2.45,-0.98
-0.01,-0.12,1.03,1.05,-2.38,-1.19
-0.01,-0.12,1.03,1.26,-2.38,-1.19
-0.01,-0.12,1.03,1.26,-2.45,-1.19
-0.01,-0.11,1.03,1.33,-2.45,-1.19
-0.01,-0.12,1.03,1.47,-2.52,-1.4
-0.01,-0.12,1.03,1.47,-2.52,-1.26
-0.02,-0.12,1.03,1.33,-2.52,-1.26
-0.01,-0.12,1.03,1.12,-2.45,-1.05
-0.01,-0.12,1.03,0.98,-2.38,-1.33
-0.02,-0.12,1.03,0.7,-2.24,-1.33
-0.02,-0.12,1.03,0.7,-2.31,-1.33
-0.02,-0.12,1.02,0.63,-2.31,-1.33
-0.01,-0.12,1.02,0.77,-2.38,-1.26
-0.01,-0.12,1.03,0.63,-2.31,-1.33
-0.02,-0.12,1.03,0.91,-2.38,-1.26
-0.02,-0.12,1.03,0.98,-2.45,-1.12
-0.02,-0.12,1.03,1.12,-2.38,-1.12
-0.02,-0.12,1.03,1.19,-2.45,-1.19
-0.02,-0.12,1.03,1.33,-2.52,-1.26
-0.02,-0.12,1.03,1.47,-2.52,-1.12
-0.02,-0.12,1.02,1.4,-2.45,-1.12
-0.02,-0.12,1.03,1.33,-2.45,-1.05
-0.02,-0.12,1.03,1.12,-2.52,-1.05
-0.01,-0.12,1.02,1.12,-2.59,-1.05
-0.02,-0.12,1.03,1.12,-2.52,-1.12
-0.01,-0.12,1.03,1.19,-2.52,-0.98
-0.01,-0.12,1.03,1.12,-2.52,-1.05
-0.02,-0.12,1.03,0.98,-2.52,-1.19
-0.01,-0.12,1.03,0.98,-2.45,-1.12
-0.02,-0.12,1.03,0.91,-2.52,-1.19
-0.01,-0.12,1.03,0.84,-2.38,-1.33
-0.02,-0.12,1.03,0.91,-2.45,-1.12
-0.01,-0.12,1.02,0.98,-2.45,-1.19
-0.02,-0.12,1.02,0.91,-2.45,-0.98
-0.02,-0.12,1.03,1.05,-2.52,-1.19
-0.02,-0.12,1.03,0.98,-2.45,-1.26
-0.02,-0.12,1.03,1.05,-2.52,-1.33
-0.02,-0.12,1.03,0.91,-2.45,-1.26
-0.02,-0.12,1.03,1.12,-2.45,-1.05
-0.02,-0.12,1.03,1.12,-2.59,-1.26
-0.01,-0.12,1.03,1.26,-2.45,-1.26
-0.02,-0.12,1.03,1.26,-2.38,-1.05
-0.01,-0.12,1.03,1.12,-2.45,-1.19
-0.01,-0.12,1.03,1.05,-2.52,-1.19
-0.02,-0.12,1.03,0.98,-2.45,-1.19
-0.02,-0.12,1.02,1.05,-2.38,-1.26
-0.01,-0.12,1.02,1.19,-2.52,-1.12
-0.01,-0.12,1.03,0.91,-2.45,-1.26
-0.01,-0.12,1.03,1.05,-2.45,-1.05
-0.01,-0.12,1.03,1.05,-2.38,-0.84
-0.01,-0.12,1.03,0.91,-2.38,-1.12
-0.02,-0.12,1.03,1.05,-2.38,-1.19
-0.02,-0.12,1.03,1.05,-2.38,-1.26
-0.01,-0.12,1.02,0.98,-2.45,-1.12
-0.02,-0.12,1.02,1.12,-2.38,-1.12
-0.02,-0.12,1.02,1.05,-2.45,-1.19
-0.02,-0.12,1.02,1.12,-2.45,-0.98
-0.02,-0.12,1.02,1.19,-2.38,-1.26
-0.02,-0.12,1.03,1.12,-2.38,-1.26
-0.02,-0.12,1.02,1.12,-2.45,-0.98
-0.02,-0.12,1.03,1.19,-2.38,-1.12
-0.02,-0.12,1.03,1.12,-2.45,-1.12
-0.01,-0.12,1.02,1.26,-2.59,-0.98
-0.02,-0.12,1.03,1.12,-2.59,-1.12
-0.02,-0.12,1.03,0.98,-2.66,-1.19
-0.02,-0.12,1.03,1.12,-2.59,-1.19
-0.01,-0.12,1.03,0.98,-2.52,-1.19
-0.01,-0.12,1.03,1.12,-2.45,-0.84
-0.02,-0.12,1.03,0.98,-2.52,-1.05
-0.02,-0.12,1.03,1.05,-2.52,-1.19
-0.01,-0.12,1.03,0.98,-2.52,-1.26
-0.02,-0.12,1.03,0.91,-2.59,-1.19
-0.02,-0.12,1.03,0.98,-2.38,-1.19
-0.02,-0.12,1.03,0.98,-2.52,-0.98
-0.01,-0.12,1.02,1.05,-2.52,-1.12
-0.01,-0.12,1.03,0.98,-2.52,-1.05
-0.02,-0.12,1.03,0.98,-2.45,-1.05
-0.02,-0.12,1.03,0.98,-2.45,-1.05
-0.02,-0.12,1.03,1.05,-2.52,-1.05
-0.01,-0.12,1.03,1.12,-2.45,-1.05
-0.01,-0.12,1.03,1.26,-2.45,-1.19
-0.01,-0.12,1.03,0.98,-2.45,-1.19
-0.01,-0.12,1.03,1.19,-2.45,-1.12
-0.01,-0.12,1.03,0.91,-2.52,-1.12
-0.01,-0.12,1.03,0.91,-2.45,-1.12
-0.01,-0.12,1.02,1.05,-2.52,-1.26
-0.02,-0.12,1.02,1.05,-2.59,-1.19
-0.02,-0.12,1.03,1.12,-2.59,-1.26
-0.01,-0.12,1.03,1.19,-2.59,-1.12
-0.02,-0.12,1.03,1.12,-2.52,-1.19
-0.02,-0.12,1.03,1.12,-2.52,-1.26
-0.01,-0.12,1.03,1.26,-2.52,-1.12
-0.01,-0.12,1.03,1.12,-2.38,-1.05
-0.01,-0.12,1.02,1.12,-2.45,-0.98
-0.02,-0.12,1.02,1.12,-2.45,-0.98
-0.02,-0.12,1.02,1.19,-2.52,-0.98
-0.02,-0.12,1.03,1.12,-2.59,-0.98
-0.02,-0.12,1.03,1.19,-2.59,-0.91
-0.01,-0.12,1.03,1.05,-2.59,-1.26
-0.01,-0.12,1.03,0.77,-2.59,-1.12
-0.01,-0.12,1.03,0.77,-2.52,-1.19
-0.01,-0.12,1.03,0.84,-2.38,-1.12
-0.01,-0.12,1.03,0.91,-2.52,-1.33
-0.02,-0.12,1.03,1.05,-2.31,-0.98
-0.02,-0.12,1.03,0.98,-2.52,-0.98
-0.02,-0.12,1.03,0.84,-2.52,-0.91
-0.02,-0.12,1.02,0.91,-2.52,-1.05
-0.02,-0.12,1.03,0.98,-2.59,-1.05
-0.02,-0.12,1.02,1.12,-2.52,-1.12
-0.01,-0.12,1.03,1.05,-2.52,-0.98
-0.01,-0.12,1.03,1.26,-2.52,-0.98
-0.02,-0.12,1.03,1.12,-2.59,-0.98
-0.02,-0.12,1.03,0.91,-2.59,-0.98
-0.02,-0.12,1.03,0.84,-2.52,-1.05
-0.01,-0.12,1.03,0.84,-2.52,-1.05
-0.01,-0.12,1.02,0.91,-2.52,-1.05
-0.01,-0.12,1.03,1.05,-2.52,-1.05
-0.01,-0.12,1.03,1.05,-2.59,-1.12
-0.01,-0.12,1.03,1.26,-2.59,-0.98
-0.01,-0.12,1.03,1.12,-2.38,-1.26
-0.01,-0.12,1.03,0.98,-2.59,-1.12
-0.01,-0.12,1.03,1.05,-2.38,-1.26
-0.01,-0.12,1.03,0.98,-2.31,-1.33
-0.01,-0.12,1.03,1.05,-2.45,-1.12
-0.01,-0.12,1.03,0.98,-2.45,-1.19
-0.01,-0.12,1.03,1.05,-2.38,-1.05
-0.01,-0.12,1.03,0.91,-2.52,-1.19
-0.01,-0.12,1.03,0.98,-2.52,-1.19
-0.02,-0.12,1.03,0.98,-2.52,-1.05
-0.02,-0.12,1.03,0.98,-2.45,-1.05
-0.02,-0.12,1.03,0.91,-2.38,-0.98
-0.02,-0.12,1.03,1.12,-2.45,-0.98
-0.02,-0.12,1.03,1.05,-2.52,-1.05
-0.02,-0.12,1.03,0.91,-2.52,-1.19
-0.02,-0.12,1.03,0.98,-2.59,-1.12
-0.02,-0.12,1.03,0.91,-2.52,-0.98
-0.02,-0.12,1.03,0.98,-2.45,-1.05
-0.02,-0.12,1.03,0.91,-2.52,-1.12
-0.02,-0.12,1.03,0.98,-2.59,-1.12
-0.02,-0.12,1.02,0.98,-2.52,-0.84
-0.02,-0.12,1.03,0.91,-2.59,-1.12
-0.02,-0.12,1.03,0.98,-2.59,-0.91
-0.02,-0.12,1.03,0.91,-2.73,-0.98
-0.02,-0.12,1.03,0.98,-2.59,-0.91
-0.02,-0.12,1.03,0.91,-2.66,-0.98
-0.02,-0.12,1.02,1.12,-2.73,-0.77
-0.02,-0.12,1.02,1.12,-2.66,-0.84
-0.01,-0.12,1.03,1.19,-2.59,-0.91
-0.02,-0.12,1.03,1.12,-2.73,-1.12
-0.01,-0.12,1.03,1.33,-2.66,-0.91
-0.01,-0.12,1.03,1.19,-2.73,-0.98
-0.01,-0.12,1.03,1.19,-2.59,-0.98
-0.01,-0.12,1.03,1.05,-2.59,-0.91
-0.01,-0.12,1.03,1.12,-2.52,-1.12
-0.01,-0.12,1.03,0.91,-2.45,-0.98
-0.01,-0.12,1.03,0.98,-2.52,-1.05
-0.01,-0.12,1.03,0.7,-2.52,-1.4
-0.01,-0.12,1.03,0.91,-2.45,-1.33
-0.01,-0.12,1.03,0.84,-2.45,-1.26
-0.01,-0.12,1.03,0.84,-2.45,-1.26
-0.01,-0.12,1.03,1.05,-2.45,-1.26
-0.01,-0.12,1.03,1.19,-2.52,-1.26
-0.01,-0.12,1.03,1.33,-2.45,-1.19
-0.01,-0.12,1.03,1.33,-2.38,-1.26
-0.02,-0.12,1.03,1.4,-2.45,-1.19
-0.02,-0.12,1.03,1.26,-2.45,-1.26
-0.02,-0.12,1.03,1.12,-2.52,-1.4
-0.02,-0.12,1.03,0.98,-2.45,-1.47
-0.03,-0.12,1.03,0.98,-2.31,-1.26
-0.03,-0.12,1.02,0.77,-2.52,-1.26
-0.02,-0.12,1.02,0.98,-2.45,-1.26
-0.02,-0.12,1.03,0.98,-2.66,-0.98
-0.02,-0.12,1.03,0.84,-2.52,-0.98
-0.01,-0.12,1.03,0.91,-2.52,-1.12
-0.01,-0.12,1.03,0.77,-2.45,-1.05
-0.01,-0.12,1.03,0.84,-2.52,-1.05
-0.01,-0.12,1.03,1.12,-2.45,-0.98
-0.01,-0.12,1.02,1.26,-2.45,-0.98
-0.01,-0.12,1.02,1.26,-2.52,-1.05
-0.01,-0.12,1.03,1.33,-2.59,-1.12
-0.01,-0.12,1.03,1.33,-2.24,-1.26
-0.01,-0.12,1.03,1.33,-2.38,-1.33
-0.01,-0.12,1.03,1.12,-2.31,-1.54
-0.01,-0.12,1.03,1.19,-2.24,-1.75
-0.02,-0.12,1.03,1.12,-2.24,-1.61
-0.02,-0.12,1.03,0.98,-2.31,-1.4
-0.02,-0.12,1.03,0.91,-2.31,-1.26
-0.01,-0.12,1.03,0.7,-2.38,-1.4
-0.01,-0.12,1.03,0.7,-2.24,-1.4
-0.01,-0.12,1.02,0.77,-2.38,-1.26
-0.02,-0.12,1.02,0.84,-2.31,-1.26
-0.02,-0.12,1.02,0.84,-2.31,-1.33
-0.02,-0.12,1.03,0.91,-2.45,-1.12
-0.02,-0.12,1.02,0.98,-2.45,-1.12
-0.02,-0.12,1.02,1.12,-2.38,-1.12
-0.02,-0.12,1.02,1.4,-2.45,-1.26
-0.02,-0.12,1.02,1.61,-2.38,-1.26
-0.02,-0.12,1.03,1.47,-2.38,-1.12
-0.02,-0.12,1.03,1.47,-2.52,-1.19
-0.02,-0.12,1.03,1.12,-2.52,-1.19
-0.02,-0.12,1.03,0.98,-2.52,-1.05
-0.02,-0.12,1.03,0.91,-2.52,-1.05
-0.02,-0.12,1.02,0.91,-2.52,-0.77
-0.02,-0.12,1.02,0.91,-2.52,-0.84
-0.02,-0.12,1.02,0.84,-2.52,-0.63
-0.02,-0.12,1.03,0.77,-2.52,-0.91
-0.02,-0.12,1.03,0.77,-2.66,-0.91
-0.01,-0.12,1.03,0.84,-2.52,-0.7
-0.01,-0.11,1.03,1.05,-2.59,-0.7
-0.02,-0.12,1.02,1.12,-2.59,-1.12
-0.02,-0.12,1.03,1.19,-2.66,-1.12
-0.02,-0.12,1.03,1.4,-2.59,-1.12
-0.01,-0.12,1.03,1.33,-2.52,-1.26
-0.01,-0.12,1.03,1.19,-2.45,-1.12
-0.01,-0.12,1.03,1.19,-2.52,-1.05
-0.01,-0.12,1.03,1.12,-2.45,-1.05
-0.01,-0.12,1.03,1.05,-2.38,-1.19
-0.01,-0.12,1.03,0.98,-2.45,-1.12
-0.01,-0.12,1.03,0.84,-2.31,-1.33
-0.01,-0.11,1.03,0.91,-2.38,-1.19
-0.01,-0.12,1.03,0.91,-2.38,-1.33
-0.02,-0.12,1.03,0.91,-2.24,-1.47
-0.01,-0.12,1.03,0.98,-2.31,-1.33
-0.02,-0.12,1.03,0.98,-2.38,-1.33
-0.02,-0.12,1.03,0.91,-2.31,-1.33
-0.02,-0.12,1.02,0.91,-2.31,-1.4
-0.02,-0.12,1.02,0.98,-2.38,-1.4
-0.02,-0.12,1.02,1.12,-2.38,-1.47
-0.02,-0.12,1.02,1.26,-2.52,-1.26
-0.02,-0.12,1.02,1.19,-2.45,-1.19
-0.02,-0.12,1.03,1.26,-2.52,-1.12
-0.02,-0.12,1.03,1.12,-2.45,-1.05
-0.02,-0.12,1.03,1.05,-2.52,-0.84
-0.02,-0.12,1.03,0.98,-2.52,-1.05
-0.02,-0.12,1.03,1.12,-2.59,-1.12
-0.02,-0.12,1.03,1.05,-2.59,-0.77
-0.02,-0.12,1.03,1.12,-2.66,-0.77
-0.02,-0.12,1.03,1.19,-2.59,-0.98
-0.02,-0.12,1.03,1.19,-2.52,-0.98
-0.01,-0.12,1.03,1.05,-2.31,-0.98
-0.01,-0.12,1.03,1.12,-2.52,-0.91
-0.01,-0.12,1.03,0.91,-2.45,-0.91
-0.01,-0.12,1.03,0.91,-2.45,-0.98
-0.01,-0.12,1.03,0.84,-2.52,-1.33
-0.01,-0.12,1.02,0.84,-2.45,-1.26
-0.01,-0.12,1.03,0.91,-2.45,-0.98
-0.01,-0.12,1.03,1.05,-2.52,-1.05
-0.01,-0.12,1.03,1.19,-2.38,-1.12
-0.01,-0.12,1.02,1.26,-2.38,-1.12
-0.01,-0.12,1.03,1.4,-2.38,-1.19
-0.01,-0.12,1.03,1.12,-2.52,-1.26
-0.01,-0.12,1.03,1.33,-2.38,-0.98
-0.02,-0.12,1.03,1.33,-2.45,-1.19
-0.02,-0.12,1.03,1.26,-2.59,-1.12
-0.02,-0.12,1.03,1.12,-2.52,-1.26
-0.02,-0.12,1.03,1.19,-2.45,-1.12
-0.02,-0.12,1.03,1.12,-2.52,-1.26
-0.02,-0.12,1.03,0.98,-2.31,-1.12
-0.02,-0.12,1.03,0.84,-2.38,-1.12
-0.02,-0.12,1.03,0.77,-2.38,-1.26
-0.02,-0.12,1.03,0.7,-2.45,-1.26
-0.01,-0.12,1.02,0.91,-2.52,-0.98
-0.02,-0.12,1.02,0.84,-2.52,-1.12
-0.02,-0.12,1.02,0.98,-2.45,-1.05
-0.02,-0.12,1.02,1.05,-2.52,-1.12
-0.01,-0.12,1.03,1.05,-2.45,-1.05
-0.02,-0.12,1.03,1.19,-2.52,-1.19
-0.01,-0.12,1.03,1.12,-2.45,-1.12
-0.01,-0.12,1.03,1.33,-2.38,-0.91
-0.02,-0.12,1.03,1.26,-2.38,-1.19
-0.02,-0.12,1.03,1.19,-2.45,-1.19
-0.02,-0.12,1.03,1.19,-2.45,-1.19
-0.02,-0.12,1.03,1.12,-2.45,-1.12
-0.01,-0.12,1.03,0.98,-2.59,-1.05
-0.01,-0.12,1.03,1.12,-2.45,-0.98
-0.01,-0.12,1.03,0.91,-2.38,-1.33
-0.02,-0.12,1.03,0.91,-2.38,-1.12
-0.01,-0.12,1.03,0.77,-2.52,-1.12
-0.02,-0.12,1.03,0.77,-2.38,-1.19
-0.01,-0.12,1.03,0.91,-2.52,-1.33
-0.01,-0.12,1.03,0.84,-2.45,-1.33
-0.01,-0.12,1.03,0.98,-2.52,-1.19
-0.02,-0.12,1.03,0.98,-2.45,-1.05
-0.02,-0.12,1.03,1.05,-2.45,-1.19
-0.01,-0.12,1.03,1.05,-2.59,-1.19
-0.02,-0.12,1.03,1.05,-2.45,-1.19
-0.01,-0.12,1.03,1.12,-2.45,-1.05
-0.02,-0.12,1.02,1.19,-2.59,-1.05
-0.01,-0.12,1.03,1.12,-2.52,-1.05
-0.02,-0.12,1.02,1.19,-2.52,-1.05
-0.01,-0.12,1.03,1.05,-2.59,-1.19
-0.01,-0.12,1.03,1.19,-2.59,-0.98
-0.01,-0.12,1.03,1.26,-2.52,-0.98
-0.01,-0.12,1.03,1.26,-2.38,-1.12
-0.01,-0.12,1.03,0.91,-2.59,-1.33
-0.01,-0.12,1.03,0.91,-2.52,-1.12
-0.02,-0.12,1.03,0.91,-2.52,-0.98
-0.02,-0.12,1.03,0.84,-2.52,-0.98
-0.02,-0.12,1.03,0.84,-2.38,-1.12
-0.02,-0.12,1.03,0.84,-2.31,-1.12
-0.02,-0.12,1.02,0.7,-2.45,-1.33
-0.02,-0.12,1.02,0.84,-2.45,-1.26
-0.02,-0.12,1.02,0.91,-2.52,-1.19
-0.02,-0.12,1.03,0.98,-2.66,-0.77
-0.02,-0.12,1.02,1.05,-2.66,-0.84
-0.02,-0.12,1.03,1.19,-2.66,-0.84
-0.02,-0.12,1.03,1.26,-2.59,-0.98
-0.02,-0.12,1.03,1.33,-2.38,-1.12
-0.01,-0.12,1.03,1.4,-2.45,-1.12
-0.01,-0.12,1.03,1.33,-2.52,-0.91
-0.01,-0.12,1.03,1.19,-2.59,-1.05
-0.01,-0.12,1.03,1.19,-2.52,-0.98
-0.01,-0.12,1.03,0.91,-2.52,-1.12
-0.01,-0.12,1.03,0.84,-2.45,-1.12
-0.01,-0.12,1.03,0.84,-2.45,-1.26
-0.01,-0.12,1.03,0.91,-2.45,-1.26
-0.01,-0.12,1.03,0.77,-2.38,-1.33
-0.01,-0.12,1.03,0.77,-2.31,-1.4
-0.01,-0.12,1.03,0.84,-2.24,-1.26
-0.01,-0.12,1.03,0.84,-2.38,-1.33
-0.01,-0.12,1.03,1.05,-2.45,-1.26
-0.02,-0.12,1.03,0.84,-2.31,-1.54
-0.02,-0.12,1.02,1.05,-2.31,-1.4
-0.02,-0.12,1.02,1.19,-2.38,-1.19
-0.02,-0.12,1.03,1.26,-2.31,-1.54
-0.02,-0.12,1.03,0.98,-2.38,-1.4
-0.02,-0.12,1.03,1.26,-2.31,-1.19
-0.02,-0.12,1.03,1.05,-2.31,-1.33
-0.02,-0.12,1.03,1.05,-2.45,-1.19
-0.02,-0.12,1.03,1.12,-2.45,-1.05
-0.02,-0.12,1.03,1.26,-2.52,-0.98
-0.02,-0.12,1.03,0.98,-2.52,-1.05
-0.02,-0.12,1.03,0.98,-2.38,-1.19
-0.02,-0.12,1.03,1.05,-2.45,-1.19
-0.02,-0.12,1.03,0.98,-2.45,-1.12
-0.02,-0.12,1.03,0.77,-2.52,-1.26
-0.01,-0.12,1.02,0.98,-2.52,-1.05
-0.01,-0.12,1.03,0.84,-2.59,-1.05
-0.02,-0.12,1.02,1.12,-2.59,-0.84
-0.02,-0.12,1.02,1.05,-2.52,-0.91
-0.02,-0.12,1.03,1.19,-2.45,-0.91
-0.02,-0.12,1.03,1.12,-2.52,-1.12
-0.02,-0.11,1.03,1.26,-2.59,-1.12
-0.02,-0.12,1.03,1.33,-2.66,-0.98
-0.02,-0.12,1.04,0.98,-2.59,-1.12
-0.02,-0.12,1.03,0.91,-2.52,-1.12
-0.02,-0.12,1.03,0.84,-2.59,-1.12
-0.02,-0.12,1.03,0.77,-2.59,-1.05
-0.02,-0.12,1.03,0.63,-2.45,-0.91
-0.02,-0.12,1.02,0.63,-2.45,-1.26
-0.02,-0.12,1.02,0.91,-2.52,-1.12
-0.01,-0.12,1.02,0.91,-2.45,-1.05
-0.01,-0.12,1.03,1.12,-2.52,-1.05
-0.01,-0.12,1.03,1.12,-2.45,-1.19
-0.01,-0.12,1.03,1.12,-2.38,-0.98
-0.01,-0.12,1.03,1.19,-2.52,-1.26
0,-0.12,1.03,1.33,-2.52,-1.26
0,-0.12,1.03,1.47,-2.38,-1.19
0,-0.12,1.03,1.47,-2.31,-1.33
-0.01,-0.11,1.03,1.47,-2.24,-1.47
-0.01,-0.12,1.03,1.4,-2.17,-1.54
-0.01,-0.12,1.03,1.33,-2.03,-1.61
-0.01,-0.11,1.03,0.98,-2.1,-1.68
-0.01,-0.12,1.03,1.12,-2.1,-1.75
-0.01,-0.12,1.03,0.98,-2.03,-1.89
-0.02,-0.12,1.03,0.7,-2.1,-1.89
-0.02,-0.12,1.03,0.7,-2.03,-1.82
-0.02,-0.12,1.03,0.77,-2.1,-1.54
-0.02,-0.12,1.03,0.84,-2.03,-1.82
-0.02,-0.12,1.02,0.77,-2.17,-1.61
-0.02,-0.12,1.02,0.84,-2.17,-1.68
-0.03,-0.12,1.02,0.98,-2.1,-1.4
-0.03,-0.13,1.02,1.05,-2.17,-1.54
-0.03,-0.12,1.02,1.12,-2.24,-1.54
-0.02,-0.13,1.02,1.19,-2.31,-1.33
-0.03,-0.13,1.03,1.26,-2.24,-1.19
-0.03,-0.12,1.03,1.19,-2.38,-1.12
-0.03,-0.12,1.02,1.19,-2.52,-1.33
-0.02,-0.12,1.03,1.12,-2.38,-1.12
-0.02,-0.12,1.03,1.19,-2.38,-0.98
-0.02,-0.12,1.03,1.4,-2.45,-0.98
-0.02,-0.12,1.03,1.26,-2.38,-1.05
-0.02,-0.12,1.03,1.05,-2.45,-1.19
-0.01,-0.12,1.03,0.84,-2.45,-1.26
-0.01,-0.12,1.03,0.7,-2.38,-1.19
-0.01,-0.12,1.03,0.7,-2.38,-1.33
-0.01,-0.12,1.03,0.7,-2.31,-1.33
-0.01,-0.11,1.03,0.7,-2.24,-1.33
-0.01,-0.12,1.03,0.98,-2.38,-1.26
-0.01,-0.12,1.03,0.98,-2.31,-1.26
-0.01,-0.12,1.03,1.12,-2.24,-1.33
-0.01,-0.12,1.03,1.19,-2.17,-1.19
-0.01,-0.12,1.03,0.91,-2.03,-1.33
