Accel_x,Accel_y,Accel_z,Gyr_x,Gyr_y,Gyr_z
-0.1,0.08,1.03,0.63,-3.36,-5.04
-0.09,0.08,1.03,0.63,-4.48,-5.04
-0.08,0.07,1.03,0.91,-4.76,-5.18
-0.09,0.08,1.03,1.12,-4.41,-4.9
-0.08,0.08,1.03,0.21,-4.27,-5.25
-0.08,0.08,1.03,-0.35,-3.78,-5.74
-0.08,0.08,1.03,-0.84,-3.22,-6.37
-0.08,0.08,1.02,-2.1,-3.08,-6.79
-0.08,0.07,1.02,-2.66,-3.29,-6.86
-0.08,0.07,1.03,-2.87,-3.43,-7.21
-0.08,0.07,1.03,-2.59,-2.94,-7.98
-0.08,0.06,1.03,-1.89,-2.66,-8.05
-0.08,0.06,1.03,-1.05,-2.66,-8.12
-0.08,0.06,1.03,-0.42,-1.82,-8.05
-0.08,0.06,1.04,0.07,-0.7,-7.84
-0.08,0.06,1.04,0.42,-0.49,-7.98
-0.08,0.06,1.03,0.42,-1.4,-8.54
-0.09,0.07,1.03,-0.07,-2.73,-8.82
-0.08,0.07,1.03,0.21,-3.01,-9.52
-0.08,0.06,1.03,0.7,-2.17,-9.73
-0.08,0.07,1.01,-0.21,-1.75,-9.52
-0.08,0.07,1.02,-0.49,-1.68,-9.87
-0.08,0.06,1.02,-0.35,-0.42,-10.43
-0.08,0.07,1.03,-0.21,1.05,-10.57
-0.09,0.07,1.02,-0.14,1.4,-9.94
-0.09,0.06,1.03,-0.91,0.98,-10.57
-0.09,0.06,1.03,-1.26,0.14,-10.99
-0.09,0.06,1.03,-0.56,-0.77,-11.41
-0.09,0.06,1.04,0,-1.54,-11.76
-0.08,0.06,1.04,0.07,-1.82,-11.97
-0.09,0.06,1.05,-0.21,-1.89,-12.46
-0.09,0.06,1.06,-0.49,-1.4,-12.53
-0.09,0.06,1.06,0.28,-1.4,-12.53
-0.1,0.06,1.06,2.03,-1.75,-11.9
-0.1,0.07,1.05,2.52,-2.59,-11.55
-0.1,0.08,1.04,2.38,-2.1,-10.92
-0.1,0.08,1.03,1.54,-2.24,-10.43
-0.1,0.08,1.02,0.63,-3.64,-10.57
-0.09,0.07,1.03,0.21,-4.76,-11.13
-0.09,0.07,1.03,0.35,-4.2,-11.2
-0.09,0.07,1.04,1.12,-3.57,-10.99
-0.1,0.06,1.04,1.82,-3.64,-10.22
-0.1,0.07,1.05,2.31,-3.08,-9.38
-0.1,0.07,1.05,3.36,-2.31,-8.96
-0.1,0.07,1.05,3.57,-0.77,-9.17
-0.1,0.07,1.04,3.5,-0.7,-8.75
-0.11,0.07,1.04,3.15,-1.33,-8.47
-0.11,0.07,1.04,2.8,-2.03,-7.42
-0.11,0.07,1.03,2.31,-3.08,-7.07
-0.1,0.07,1.03,2.66,-3.71,-6.72
-0.1,0.07,1.03,2.38,-3.64,-6.16
-0.1,0.07,1.02,2.52,-3.99,-5.95
-0.1,0.07,1.03,2.73,-3.71,-6.37
-0.09,0.07,1.02,3.22,-2.24,-6.23
-0.09,0.07,1.02,2.17,-1.54,-6.09
-0.09,0.07,1.01,0.84,-1.05,-6.16
-0.09,0.06,1.02,-0.35,-0.91,-6.44
-0.1,0.06,1.02,-1.4,-0.91,-6.79
-0.1,0.05,1.02,-1.61,-1.4,-6.02
-0.1,0.05,1.03,-1.47,-1.75,-5.04
-0.1,0.05,1.03,-1.61,-1.61,-4.41
-0.09,0.04,1.04,-1.54,-1.89,-3.99
-0.09,0.04,1.04,-1.26,-1.89,-3.85
-0.09,0.04,1.04,-0.63,-1.68,-3.71
-0.09,0.05,1.04,0.35,-1.54,-3.15
-0.09,0.05,1.03,0.35,-1.82,-2.03
-0.09,0.06,1.02,-17.85,-2.73,-1.89
-0.09,0.06,1.02,-1.26,-3.29,-1.96
-0.09,0.07,1.02,-2.24,-3.57,-2.59
-0.09,0.06,1.02,-2.45,-3.71,-2.87
-0.08,0.07,1.03,-2.1,-4.13,-3.22
-0.08,0.06,1.04,-2.1,-3.78,-3.29
-0.08,0.07,1.04,-2.1,-3.43,-3.43
-0.08,0.07,1.05,-1.61,-2.73,-3.71
-0.08,0.07,1.06,-1.05,-2.03,-3.85
-0.09,0.06,1.06,-0.28,-1.96,-4.48
-0.08,0.07,1.06,0.63,-1.82,-5.11
-0.08,0.07,1.06,1.26,-1.68,-5.18
-0.09,0.07,1.05,0.98,-1.89,-5.11
-0.09,0.07,1.04,0.98,-2.8,-5.18
-0.08,0.07,1.04,1.54,-3.57,-5.39
-0.08,0.07,1.03,1.33,-3.5,-5.53
-0.09,0.07,1.03,0.56,-3.29,-6.02
-0.08,0.06,1.03,0.07,-3.29,-6.02
-0.08,0.06,1.04,0.35,-3.22,-5.88
-0.09,0.06,1.04,0.63,-2.59,-6.02
-0.09,0.06,1.04,0.63,-2.45,-5.53
-0.09,0.06,1.04,0.98,-2.8,-5.67
-0.09,0.06,1.04,0.84,-2.66,-5.53
-0.1,0.06,1.04,1.19,-2.87,-5.25
-0.1,0.06,1.03,1.68,-3.29,-4.9
-0.1,0.06,1.03,1.82,-3.64,-4.27
-0.1,0.07,1.03,1.05,-3.71,-3.71
-0.1,0.06,1.03,0.49,-3.85,-3.22
-0.1,0.06,1.04,0.21,-3.57,-2.87
-0.1,0.05,1.04,0.21,-3.92,-2.73
-0.1,0.05,1.04,0.77,-4.41,-2.03
-0.1,0.05,1.04,1.54,-4.34,-1.26
-0.1,0.05,1.03,2.38,-4.27,-0.98
-0.09,0.05,1.02,2.17,-4.06,-0.98
-0.09,0.05,1.02,1.61,-4.13,-0.49
-0.09,0.05,1.02,0.49,-3.85,0
-0.09,0.05,1.02,0.07,-3.92,0.14
-0.09,0.04,1.02,0.21,-3.99,0
-0.09,0.05,1.02,-0.14,-4.48,0.42
-0.08,0.04,1.02,-0.14,-4.83,0.7
-0.08,0.05,1.02,-0.63,-4.83,0.56
-0.08,0.05,1.03,-1.19,-4.62,0.7
-0.08,0.05,1.04,-1.54,-4.06,0.07
-0.08,0.05,1.04,-1.61,-3.5,-0.49
-0.08,0.04,1.05,-0.84,-3.85,-0.42
-0.08,0.05,1.05,-0.21,-4.34,-0.42
-0.07,0.05,1.06,0.28,-3.99,-0.35
-0.07,0.06,1.04,0,-3.71,-0.63
-0.07,0.06,1.04,-0.07,-4.34,-1.47
-0.06,0.06,1.04,0.42,-4.55,-1.96
-0.06,0.06,1.03,1.61,-3.64,-2.03
-0.06,0.06,1.03,1.75,-2.87,-3.01
-0.07,0.06,1.02,1.12,-2.52,-3.22
-0.07,0.06,1.02,0.56,-2.8,-3.5
-0.07,0.06,1.02,0.35,-3.29,-3.5
-0.08,0.06,1.03,-0.14,-3.29,-3.92
-0.08,0.06,1.04,-0.14,-3.36,-4.55
-0.09,0.06,1.04,0.14,-3.5,-4.55
-0.09,0.06,1.05,0.63,-3.64,-3.78
-0.09,0.06,1.05,0.7,-3.43,-3.71
-0.08,0.05,1.05,1.54,-2.87,-3.43
-0.08,0.05,1.06,2.38,-2.59,-3.85
-0.08,0.06,1.06,3.08,-1.96,-4.34
-0.08,0.05,1.04,3.99,-2.31,-3.43
-0.08,0.06,1.04,4.06,-2.45,-3.01
-0.07,0.06,1.03,3.99,-2.1,-3.36
-0.07,0.06,1.02,3.22,-2.1,-3.99
-0.07,0.06,1.02,2.87,-2.59,-4.41
-0.06,0.05,1.02,2.8,-1.82,-4.9
-0.07,0.05,1.02,1.89,-0.35,-4.97
-0.08,0.05,1.01,0.98,-0.21,-5.04
-0.08,0.05,1.02,0,-0.98,-5.39
-0.07,0.04,1.03,-0.14,-1.26,-5.67
-0.07,0.04,1.04,0.49,-1.12,-5.95
-0.08,0.04,1.03,0.98,-1.12,-5.74
-0.08,0.05,1.03,0.14,-0.91,-5.11
-0.08,0.05,1.03,-0.42,-0.49,-5.11
-0.08,0.05,1.04,-0.42,-0.7,-5.18
-0.09,0.05,1.04,0.07,-1.19,-4.41
-0.09,0.05,1.03,0.56,-2.03,-4.41
-0.08,0.05,1.03,0.35,-2.17,-5.18
-0.09,0.05,1.03,0.21,-2.73,-5.18
-0.09,0.05,1.04,0.07,-2.87,-4.76
-0.09,0.04,1.04,0.49,-2.94,-3.71
-0.09,0.05,1.05,1.96,-2.8,-2.8
-0.09,0.07,1.05,-0.21,-2.73,-3.92
-0.08,0.03,1.05,1.12,-2.59,-3.71
-0.09,0.05,1.05,2.38,-2.03,-3.64
-0.09,0.05,1.04,2.45,-2.17,-3.92
-0.09,0.05,1.03,2.52,-2.03,-3.36
-0.09,0.05,1.03,2.17,-2.38,-3.43
-0.09,0.06,1.03,1.4,-2.73,-3.22
-0.08,0.05,1.03,1.19,-3.29,-3.36
-0.08,0.05,1.02,0.84,-3.71,-3.36
-0.08,0.05,1.02,0.07,-4.48,-3.29
-0.07,0.05,1.03,0.28,-4.2,-3.5
-0.07,0.05,1.03,0.42,-3.08,-3.92
-0.07,0.05,1.03,0.7,-2.24,-3.78
-0.07,0.05,1.03,-0.07,-1.61,-4.55
-0.07,0.06,1.03,-0.14,-1.19,-4.83
-0.08,0.06,1.03,-0.07,-2.1,-4.76
-0.08,0.06,1.03,-0.14,-2.73,-4.2
-0.08,0.06,1.04,-0.42,-2.45,-4.83
-0.08,0.06,1.04,-0.49,-2.24,-5.39
-0.09,0.06,1.04,0.14,-2.24,-4.62
-0.08,0.06,1.04,-0.07,-2.1,-3.99
-0.09,0.06,1.04,-0.07,-2.17,-2.94
-0.09,0.06,1.03,0.07,-2.87,-2.66
-0.09,0.06,1.03,-0.7,-3.36,-3.15
-0.08,0.06,1.04,-1.19,-2.94,-3.99
-0.08,0.05,1.04,-0.56,-2.45,-4.41
-0.1,0.05,1.04,-0.14,-2.24,-3.29
-0.1,0.05,1.04,-0.35,-2.38,-1.96
-0.1,0.05,1.03,-0.35,-2.59,-0.77
-0.09,0.05,1.03,0.14,-3.08,-0.14
-0.09,0.05,1.03,-0.14,-3.36,-0.14
-0.09,0.06,1.02,-0.49,-3.43,0.21
-0.09,0.05,1.03,-1.05,-3.36,0.28
-0.09,0.05,1.03,-1.12,-3.22,0.7
-0.09,0.06,1.03,-0.98,-3.64,1.12
-0.08,0.06,1.04,-0.7,-3.36,0.91
-0.08,0.06,1.04,-1.05,-2.59,0.84
-0.09,0.06,1.03,-1.19,-3.08,1.12
-0.08,0.06,1.04,-1.33,-3.22,1.47
-0.08,0.05,1.04,-1.26,-2.94,1.82
-0.08,0.05,1.04,-0.84,-3.01,1.61
-0.07,0.06,1.05,-0.14,-2.45,0.91
-0.07,0.05,1.05,0.14,-1.96,1.05
-0.08,0.05,1.05,0.35,-2.73,1.61
-0.08,0.05,1.05,0.77,-3.57,1.96
-0.07,0.06,1.05,1.26,-3.57,1.82
-0.07,0.06,1.05,1.26,-3.57,1.33
-0.07,0.06,1.05,1.61,-3.92,0.84
-0.07,0.06,1.05,2.1,-4.13,0.49
-0.07,0.05,1.05,2.66,-3.71,0.77
-0.07,0.06,1.04,2.03,-3.29,0.77
-0.07,0.05,1.04,1.47,-2.8,0.49
-0.08,0.05,1.04,1.4,-2.45,0.28
-0.08,0.05,1.04,2.31,-2.8,0.98
-0.09,0.05,1.04,2.87,-3.29,1.26
-0.09,0.05,1.03,2.31,-3.78,1.68
-0.09,0.05,1.03,1.82,-3.99,2.66
-0.09,0.05,1.03,1.26,-3.92,3.29
-0.09,0.05,1.03,0.56,-3.85,3.43
-0.08,0.04,1.04,0.42,-3.5,2.73
-0.08,0.04,1.04,0.91,-3.36,2.87
-0.09,0.05,1.04,1.05,-3.22,3.22
-0.09,0.05,1.04,1.12,-3.22,3.92
-0.09,0.05,1.04,0.91,-3.71,4.83
-0.08,0.05,1.04,0.7,-4.27,4.62
-0.07,0.05,1.05,0.98,-4.06,4.55
-0.07,0.05,1.05,1.54,-3.78,4.41
-0.07,0.05,1.05,2.1,-3.36,4.41
-0.07,0.05,1.05,2.17,-3.22,4.83
-0.07,0.05,1.04,2.45,-3.64,4.97
-0.07,0.05,1.04,2.66,-4.06,4.62
-0.06,0.05,1.04,2.87,-3.92,4.27
-0.06,0.05,1.04,3.01,-3.22,4.13
-0.06,0.05,1.03,3.22,-3.22,3.99
-0.07,0.05,1.03,3.01,-3.43,3.99
-0.06,0.05,1.03,2.8,-3.22,3.57
-0.06,0.05,1.03,2.45,-2.66,3.15
-0.07,0.05,1.02,2.31,-2.45,3.01
-0.07,0.05,1.02,2.1,-2.73,2.8
-0.07,0.05,1.03,1.54,-2.59,2.38
-0.07,0.05,1.03,1.05,-1.82,2.1
-0.07,0.04,1.02,0.98,-1.47,2.45
-0.07,0.04,1.02,1.12,-1.4,2.8
-0.08,0.04,1.02,0.77,-1.75,3.08
-0.08,0.04,1.02,0.35,-2.59,3.64
-0.08,0.04,1.02,0.35,-3.43,4.2
-0.07,0.04,1.02,0.14,-4.34,3.99
-0.07,0.05,1.02,0.07,-4.06,3.85
-0.07,0.05,1.02,-0.42,-2.52,3.78
-0.07,0.05,1.02,-1.47,-1.33,3.71
-0.08,0.05,1.03,-2.38,-1.12,4.48
-0.08,0.05,1.04,-2.87,-1.75,4.76
-0.08,0.04,1.05,-2.73,-2.38,5.25
-0.08,0.04,1.05,-2.03,-3.22,5.67
-0.07,0.05,1.06,-1.47,-3.64,5.46
-0.06,0.05,1.06,-0.63,-2.8,5.67
-0.06,0.05,1.05,0.49,-1.68,5.67
-0.06,0.05,1.04,0.98,-0.7,6.23
-0.07,0.06,1.03,0.63,-1.12,6.37
-0.06,0.06,1.03,0.21,-1.68,6.23
-0.06,0.06,1.03,-0.42,-1.68,5.6
-0.06,0.06,1.03,-1.26,-1.33,4.9
-0.07,0.06,1.04,-1.68,-1.54,4.27
-0.07,0.05,1.04,-1.82,-1.54,4.55
-0.07,0.05,1.05,-1.4,-1.68,4.9
-0.07,0.04,1.05,-0.56,-2.24,5.53
-0.07,0.04,1.05,1.05,-2.31,5.32
-0.06,0.05,1.04,2.17,-2.17,5.32
-0.06,0.05,1.03,2.38,-2.1,5.32
-0.06,0.05,1.03,1.89,-1.54,4.41
-0.07,0.05,1.03,1.54,-1.05,4.41
-0.07,0.05,1.02,1.12,-0.91,4.62
-0.07,0.05,1.02,0.21,-1.26,4.41
-0.08,0.05,1.02,-0.84,-1.47,4.27
-0.08,0.05,1.03,-0.84,-1.82,4.06
-0.08,0.04,1.03,-0.84,-1.75,4.69
-0.08,0.04,1.04,-0.56,-1.96,5.04
-0.08,0.04,1.05,0.35,-1.61,5.11
-0.08,0.04,1.05,1.33,-1.26,5.46
-0.08,0.04,1.04,1.75,-1.47,5.67
-0.08,0.04,1.04,1.54,-1.89,6.23
-0.08,0.04,1.03,1.26,-1.82,6.37
-0.07,0.04,1.03,1.05,-1.75,6.16
-0.07,0.04,1.02,0.7,-1.4,6.23
-0.07,0.05,1.03,0.14,-1.05,6.3
-0.07,0.04,1.03,-0.14,-0.7,5.67
-0.07,0.04,1.03,-0.14,-0.28,5.74
-0.08,0.04,1.03,-0.49,-0.07,6.16
-0.08,0.04,1.03,-0.7,-0.42,6.44
-0.08,0.03,1.04,0.21,-0.91,6.16
-0.07,0.03,1.04,0.77,-0.7,6.3
-0.08,0.03,1.03,0.7,-0.91,6.79
-0.08,0.03,1.04,1.19,-1.33,7.07
-0.06,0.03,1.04,2.1,0.07,6.02
-0.06,0.03,1.03,2.17,1.05,5.67
-0.07,0.04,1.02,2.03,0.56,5.95
-0.07,0.04,1.02,1.54,0.07,5.95
-0.06,0.04,1.03,1.26,0.42,4.9
-0.05,0.04,1.03,0.91,1.05,3.64
-0.06,0.04,1.03,1.12,1.12,2.59
-0.06,0.04,1.03,1.4,0.98,2.17
-0.06,0.04,1.03,0.98,1.12,2.24
-0.07,0.04,1.03,0.7,0.7,2.17
-0.07,0.05,1.03,0.42,-0.07,2.03
-0.07,0.05,1.04,0.63,0,0.21
-0.07,0.05,1.04,1.12,1.89,-1.26
-0.08,0.05,1.04,1.12,2.52,-1.4
-0.1,0.05,1.03,0.42,1.61,0.07
-0.1,0.05,1.04,0.42,0.42,1.05
-0.1,0.05,1.04,1.19,-0.28,2.17
-0.1,0.05,1.04,1.54,-1.33,3.29
-0.1,0.05,1.05,1.89,-1.75,2.66
-0.09,0.05,1.04,2.17,-0.42,1.61
-0.09,0.04,1.05,1.96,0.91,1.4
-0.1,0.05,1.04,1.4,1.47,2.87
-0.11,0.04,1.04,1.54,0.14,3.99
-0.1,0.04,1.04,1.96,-0.77,4.41
-0.1,0.04,1.04,1.47,-1.61,4.97
-0.1,0.04,1.04,0.7,-1.82,5.11
-0.1,0.04,1.04,1.05,-1.4,4.9
-0.1,0.04,1.03,0.98,-0.49,5.53
-0.1,0.03,1.03,0.84,-0.63,6.72
-0.1,0.03,1.03,1.47,-1.19,7.28
-0.1,0.03,1.03,1.47,-1.96,7.63
-0.1,0.03,1.02,0.98,-2.66,7.98
-0.09,0.03,1.02,0.56,-2.87,7.84
-0.09,0.03,1.02,0.42,-3.08,7.63
-0.09,0.03,1.02,0.28,-2.8,8.12
-0.09,0.03,1.01,0.07,-2.03,8.26
-0.09,0.03,1,0.07,-1.47,8.47
-0.1,0.04,1,-0.49,-1.47,7.77
-0.1,0.04,1.01,-0.91,-1.4,7.49
-0.11,0.03,1.01,-1.12,-1.96,8.19
-0.11,0.04,1.01,-0.35,-2.8,8.47
-0.11,0.04,1.01,-0.07,-2.87,8.19
-0.11,0.05,1.01,-0.07,-2.73,7.91
-0.11,0.05,1.01,-0.56,-2.73,7.84
-0.11,0.05,1.01,-1.05,-2.87,7.28
-0.11,0.05,1.02,-1.54,-2.59,5.88
-0.11,0.05,1.03,-1.96,-2.38,5.11
-0.12,0.05,1.04,-2.73,-2.8,4.27
-0.11,0.05,1.05,-3.85,-3.29,3.64
-0.12,0.04,1.07,-4.76,-3.43,2.52
-0.11,0.04,1.09,-5.6,-3.5,1.68
-0.11,0.03,1.1,-5.74,-3.29,0.84
-0.1,0.02,1.12,-4.69,-2.45,-0.98
-0.09,0.01,1.12,-3.36,-0.77,-1.54
-0.1,0.02,1.11,-1.47,-1.61,-1.68
-0.1,0.03,1.1,0.21,-3.22,-1.82
-0.09,0.03,1.09,1.61,-3.99,-2.24
-0.08,0.05,1.07,2.31,-4.27,-2.8
-0.08,0.06,1.04,1.68,-5.32,-3.71
-0.07,0.07,1.03,0.63,-6.44,-5.39
-0.07,0.07,1.02,0.56,-7.28,-5.32
-0.07,0.07,1.02,0.98,-8.05,-5.95
-0.07,0.08,1.02,0.49,-8.19,-7.7
-0.07,0.08,1.03,0,-8.05,-9.87
-0.08,0.08,1.04,0.14,-8.33,-11.41
-0.08,0.07,1.05,0.49,-8.05,-12.6
-0.09,0.07,1.06,1.89,-8.19,-13.44
-0.1,0.06,1.06,3.64,-8.96,-14.35
-0.1,0.06,1.07,5.81,-9.17,-15.4
-0.1,0.06,1.06,5.88,-9.03,-17.57
-0.11,0.05,1.06,6.23,-9.31,-19.46
-0.12,0.05,1.07,7.28,-10.29,-20.16
-0.12,0.04,1.07,9.38,-11.06,-20.44
-0.11,0.04,1.06,11.13,-11.27,-21.42
-0.11,0.04,1.05,11.76,-10.22,-23.24
-0.11,0.04,1.04,11.69,-8.54,-25.13
-0.12,0.03,1.04,12.04,-7,-26.53
-0.13,0.03,1.03,12.18,-5.6,-26.81
-0.13,0.03,1.02,12.04,-4.83,-27.3
-0.14,0.03,1.01,11.27,-4.41,-27.65
-0.14,0.03,1,10.15,-4.06,-27.44
-0.14,0.03,1,8.82,-3.78,-27.16
-0.13,0.03,1,7.28,-4.34,-26.32
-0.11,0.03,1.01,6.93,-4.27,-25.41
-0.08,0.04,1.01,6.72,-4.13,-25.06
-0.06,0.04,1.01,6.51,-3.99,-25.41
-0.05,0.05,1.01,5.39,-3.57,-26.25
-0.04,0.06,1.01,3.92,-2.52,-27.23
-0.04,0.06,1.02,2.03,-1.75,-28.49
-0.04,0.06,1.03,-0.35,-2.1,-29.47
-0.04,0.05,1.05,-1.19,-2.52,-30.45
-0.05,0.04,1.07,-1.19,-3.15,-30.8
-0.05,0.04,1.09,-0.42,-3.29,-31.22
-0.06,0.04,1.1,1.05,-3.57,-31.22
-0.07,0.04,1.1,2.38,-4.62,-31.15
-0.07,0.05,1.1,3.78,-4.97,-30.73
-0.08,0.05,1.09,5.04,-4.97,-30.45
-0.09,0.06,1.07,5.39,-5.32,-29.75
-0.09,0.06,1.06,5.11,-6.09,-29.82
-0.09,0.06,1.05,5.25,-6.23,-29.61
-0.1,0.06,1.04,5.53,-7.14,-29.54
-0.1,0.06,1.03,5.32,-7.42,-29.12
-0.1,0.06,1.02,4.9,-7.42,-28.84
-0.1,0.06,1.01,5.39,-7.07,-28.42
-0.1,0.06,1.01,5.39,-6.58,-27.51
-0.1,0.07,1,4.62,-5.53,-27.23
-0.1,0.06,0.99,4.06,-4.83,-26.39
-0.11,0.07,0.98,4.2,-5.74,-25.83
-0.11,0.06,0.98,4.27,-6.37,-25.41
-0.1,0.07,0.97,3.71,-5.74,-25.48
-0.1,0.06,0.97,2.1,-4.83,-25.2
-0.1,0.06,0.97,0.56,-3.64,-25.06
-0.1,0.06,0.98,-1.12,-2.03,-24.78
-0.11,0.05,0.98,-1.61,-1.75,-24.22
-0.12,0.05,0.99,-1.82,-1.89,-22.89
-0.12,0.05,1,-2.94,-1.61,-21.91
-0.12,0.04,1,-4.2,-1.61,-20.93
-0.12,0.04,1,-4.9,-1.96,-19.81
-0.12,0.04,1.02,-5.74,-2.1,-18.41
-0.11,0.03,1.04,-5.81,-0.49,-18.62
-0.11,0.03,1.04,-5.67,0.91,-18.2
-0.12,0.02,1.04,-5.39,0.35,-16.38
-0.11,0.03,1.04,-5.04,-0.84,-14.49
-0.09,0.03,1.04,-4.55,-1.12,-12.95
-0.08,0.04,1.04,-4.48,-0.98,-12.46
-0.07,0.05,1.04,-4.69,-0.91,-13.16
-0.05,0.05,1.03,-5.32,0.91,-14.84
-0.05,0.05,1.02,-5.46,1.4,-14.63
-0.06,0.06,1.02,-6.3,0.84,-13.44
-0.05,0.06,1.02,-7.14,-0.7,-13.09
-0.05,0.06,1.02,-7.35,-1.89,-12.53
-0.05,0.06,1.03,-8.4,-2.94,-12.53
-0.04,0.06,1.05,-8.4,-2.94,-13.72
-0.03,0.06,1.07,-7.91,-1.54,-15.47
-0.04,0.05,1.07,-7.42,-1.19,-15.68
-0.06,0.05,1.07,-6.3,-3.01,-14.98
-0.06,0.04,1.08,-4.83,-4.2,-13.86
-0.06,0.04,1.08,-3.29,-5.25,-12.74
-0.06,0.04,1.07,-2.1,-7.07,-12.18
-0.05,0.04,1.07,-0.42,-8.12,-12.25
-0.04,0.04,1.06,0.91,-7.49,-13.09
-0.04,0.04,1.06,0.98,-6.09,-14.49
-0.05,0.04,1.04,0.14,-5.46,-14.56
-0.06,0.02,1.04,-0.63,-6.58,-14.21
-0.05,0.02,1.05,0.21,-7.14,-13.79
-0.05,0.01,1.05,0.91,-6.86,-13.79
-0.06,0.01,1.04,1.47,-7.49,-13.86
-0.06,0.01,1.03,2.03,-9.1,-13.93
-0.05,0.02,1.03,1.96,-9.17,-14.63
-0.04,0.02,1.03,1.82,-7.63,-14.63
-0.05,0.02,1.03,1.12,-7.49,-15.12
-0.05,0.02,1.02,0.56,-8.05,-15.61
-0.04,0.02,1.03,0.56,-8.12,-16.17
-0.03,0.02,1.03,0.7,-7.21,-16.8
-0.03,0.02,1.03,0.7,-7.07,-17.43
-0.04,0.03,1.04,0.84,-8.05,-17.64
-0.04,0.03,1.04,1.19,-8.47,-18.13
-0.03,0.03,1.04,1.54,-8.19,-18.76
-0.03,0.03,1.04,2.1,-7.35,-19.67
-0.03,0.03,1.04,2.17,-6.16,-20.51
-0.04,0.03,1.04,1.82,-5.81,-21.07
-0.04,0.03,1.04,1.82,-5.74,-21.7
-0.05,0.02,1.05,2.24,-5.81,-22.05
-0.06,0.02,1.05,2.45,-5.88,-21.63
-0.06,0.02,1.05,2.03,-6.23,-21.84
-0.06,0.02,1.05,2.03,-6.02,-22.12
-0.05,0.01,1.05,2.8,-5.67,-22.26
-0.06,0.01,1.05,4.13,-5.46,-22.05
-0.06,0.01,1.04,4.83,-5.32,-21.98
-0.06,0.02,1.04,4.62,-4.9,-22.12
-0.06,0.02,1.03,4.27,-4.69,-22.4
-0.06,0.01,1.03,4.06,-4.62,-22.68
-0.06,0.02,1.03,3.64,-4.34,-22.47
-0.07,0.02,1.02,2.94,-4.9,-22.05
-0.07,0.01,1.02,2.03,-5.67,-21.91
-0.06,0.01,1.02,1.4,-5.88,-21.7
-0.06,0,1.03,0.63,-5.6,-20.72
-0.06,0.01,1.03,-0.28,-5.18,-20.65
-0.06,-0.01,1.04,-0.56,-5.04,-20.44
-0.05,-0.01,1.04,0.21,-5.25,-19.39
-0.05,0,1.05,0.49,-5.18,-18.83
-0.05,-0.01,1.04,0.21,-5.67,-18.62
-0.04,0,1.04,0.35,-6.16,-18.27
-0.04,0,1.03,-17.92,-6.79,-17.99
-0.03,0,1.02,-0.42,-7.42,-17.57
-0.03,0.01,1.02,-0.98,-8.19,-16.94
-0.02,0.01,1.01,-0.84,-8.26,-16.59
-0.02,0.02,1.01,-2.1,-8.47,-16.73
-0.02,0.02,1.01,-3.71,-9.31,-17.08
-0.01,0.02,1.02,-4.34,-9.73,-17.22
-0.01,0.02,1.03,-4.2,-9.87,-17.5
-0.01,0.02,1.04,-4.62,-9.73,-17.43
-0.02,0.01,1.04,-4.27,-10.64,-15.96
-0.03,0.02,1.04,-3.29,-12.25,-14.7
-0.02,0.02,1.05,-2.59,-12.74,-13.86
-0.01,0.03,1.05,-2.87,-12.88,-13.72
-0.01,0.04,1.06,-2.87,-13.23,-13.65
-0.01,0.04,1.06,-2.73,-13.37,-13.79
-0.01,0.05,1.06,-2.66,-13.86,-13.51
-0.01,0.05,1.06,-1.89,-14,-14
0,0.05,1.06,-1.75,-12.95,-14.84
-0.01,0.06,1.06,-2.03,-11.76,-15.19
-0.02,0.05,1.06,-1.54,-11.34,-15.82
-0.02,0.05,1.07,-0.49,-10.08,-16.17
-0.02,0.05,1.06,0.63,-8.75,-15.82
-0.03,0.05,1.05,1.26,-8.61,-15.47
-0.03,0.05,1.04,1.61,-8.89,-15.05
-0.03,0.05,1.04,1.82,-8.26,-14.84
-0.04,0.05,1.03,1.68,-7.84,-13.79
-0.03,0.05,1.03,1.61,-7.28,-13.51
-0.03,0.04,1.03,1.54,-6.37,-12.46
-0.04,0.04,1.02,1.75,-6.23,-11.69
-0.04,0.04,1.03,1.61,-5.81,-10.71
-0.04,0.03,1.03,1.75,-4.83,-9.24
-0.05,0.03,1.03,2.03,-4.2,-7.56
-0.05,0.03,1.04,2.45,-4.06,-6.3
-0.05,0.03,1.04,2.8,-4.13,-4.55
-0.05,0.03,1.03,3.01,-3.85,-2.24
-0.05,0.03,1.02,2.52,-3.85,0.07
-0.04,0.03,1.02,2.17,-3.85,1.89
-0.04,0.03,1.01,0.84,-4.06,3.5
-0.03,0.03,1.02,0.35,-4.83,4.62
-0.02,0.03,1.02,0,-4.9,6.09
-0.01,0.03,1.02,-0.56,-4.97,7.84
0,0.05,1.01,-2.87,-4.34,8.54
0,0.03,1.01,-3.43,-4.69,9.59
0.01,0.03,1.02,-3.85,-3.64,10.71
0.01,0.04,1.03,-4.06,-2.94,11.34
0.01,0.04,1.03,-4.62,-1.68,11.97
0.01,0.05,1.03,-6.16,-1.4,12.46
0.01,0.05,1.05,-6.93,-1.33,13.02
0.01,0.05,1.05,-7.56,-0.49,14.28
0.02,0.05,1.07,-7.77,1.61,14.42
0.02,0.05,1.07,-7.77,2.8,15.26
0,0.04,1.07,-6.3,0.28,17.08
0,0.05,1.07,-5.67,-0.42,18.27
0.02,0.06,1.09,-6.16,0.98,18.62
0.01,0.05,1.08,-5.74,2.94,18.97
0.01,0.05,1.09,-5.95,4.62,20.16
0.01,0.04,1.09,-5.53,6.65,21.28
0.01,0.04,1.09,-3.85,7.56,21.98
0.01,0.04,1.08,-2.66,7.91,24.22
0,0.03,1.06,-1.4,7.07,26.25
0.01,0.03,1.06,0.63,6.3,28
0.01,0.04,1.04,0,5.53,28.56
0.01,0.03,1.02,-1.26,2.52,28.77
0.01,0.03,1.02,-0.84,-1.19,29.89
0.01,0.04,1.03,-1.75,-3.71,30.17
0.01,0.01,1.03,-0.49,-5.81,31.22
0.02,0.01,1.04,1.82,-7.98,32.48
0.02,0.02,1.04,2.45,-9.59,32.55
0.03,0.01,1.06,2.66,-10.5,32.2
0.03,0,1.07,3.85,-10.92,32.27
0.04,0,1.08,5.32,-9.87,31.99
0.04,-0.01,1.07,7.14,-9.66,32.41
0.04,-0.01,1.05,8.12,-9.24,31.99
0.04,0,1.05,8.12,-8.89,31.57
0.04,0,1.05,6.86,-7.7,30.94
0.04,-0.01,1.05,5.6,-7.35,30.1
0.04,-0.02,1.04,5.11,-7.49,29.47
0.04,-0.02,1.05,5.39,-7.42,29.33
0.04,-0.02,1.05,5.81,-6.44,29.12
0.04,-0.03,1.04,6.44,-6.16,29.33
0.04,-0.01,1.04,6.58,-3.99,29.05
0.02,-0.01,1.03,6.23,-3.29,29.68
0.02,-0.01,1.02,6.86,-2.31,29.61
0.02,-0.01,1,6.44,-2.17,30.31
0.02,0,0.99,5.81,-2.52,31.01
0.01,0,0.98,3.71,-3.01,31.36
0.01,0,1,2.8,-1.33,31.78
0,-0.01,1,2.24,0,32.76
0,-0.02,1,1.82,-0.77,34.02
0,-0.01,1.01,1.33,-1.96,34.72
0.01,-0.02,1.02,1.26,-2.52,35
0.02,-0.02,1.02,1.05,-2.38,35.35
0.02,-0.02,1.03,0.07,-3.01,35.21
0.02,-0.02,1.04,-0.77,-3.85,34.65
0.03,-0.02,1.05,-1.75,-4.48,33.6
0.03,-0.04,1.07,-1.89,-3.92,33.11
0.03,-0.03,1.08,-0.91,-3.08,31.85
0.03,-0.04,1.08,0.21,-3.71,30.8
0.03,-0.04,1.08,1.96,-4.2,30.03
0.04,-0.03,1.08,3.99,-3.78,28.84
0.03,-0.03,1.05,6.09,-2.8,28.14
0.03,-0.02,1.03,7.42,-2.52,28.21
0.04,0,1.01,8.12,-2.45,26.81
0.05,0,1,8.26,-1.75,24.64
0.04,0.01,0.99,7.91,-1.47,23.1
0.04,0.02,0.99,6.65,-1.19,20.58
0.04,0.02,0.99,5.11,-1.19,18.2
0.04,0.02,1,3.57,-0.56,16.38
0.03,0.02,1.02,2.38,0.49,13.65
0.03,0.01,1.04,1.89,2.17,12.11
0.02,0,1.05,2.52,2.38,11.06
0.01,-0.01,1.06,3.5,2.66,10.64
0,-0.01,1.07,4.9,2.73,10.22
-0.01,-0.01,1.07,6.37,3.15,10.22
-0.01,-0.02,1.06,7.63,2.66,10.22
-0.01,-0.01,1.06,8.05,2.87,9.66
-0.02,-0.01,1.06,7.7,3.5,9.1
-0.02,-0.01,1.04,7.63,4.13,8.75
-0.02,-0.01,1.03,8.54,3.85,9.24
-0.03,0,1.03,8.82,3.57,10.29
-0.03,0.01,1.02,8.33,3.22,10.5
-0.03,0.01,1.01,7.63,2.38,10.64
-0.03,0.01,1.01,7,1.12,10.5
-0.02,0.02,1.02,7,1.12,9.94
-0.02,0.01,1.02,6.37,1.75,9.31
-0.02,0.01,1.02,5.81,2.1,8.75
-0.02,0.01,1.03,5.53,2.52,8.4
-0.02,0.01,1.04,5.74,3.36,8.12
-0.03,0.01,1.04,6.09,3.57,7.91
-0.03,0.01,1.05,6.44,3.22,7.56
-0.03,0.01,1.05,6.51,2.03,7.49
-0.04,0.01,1.06,6.51,1.75,6.79
-0.02,0.01,1.06,6.86,1.89,6.02
-0.03,0.01,1.05,6.93,2.17,5.39
-0.02,0.01,1.06,7.49,2.45,4.48
-0.02,0.02,1.05,7.91,3.64,3.85
-0.02,0.02,1.04,8.26,4.48,3.01
-0.02,0.02,1.03,8.19,4.48,2.31
-0.02,0.03,1.03,7.56,4.13,1.89
-0.02,0.03,1.03,6.51,3.85,0.91
-0.02,0.03,1.03,5.67,3.92,-0.14
-0.03,0.03,1.03,5.39,3.43,-0.49
-0.03,0.03,1.03,4.83,3.08,-1.26
-0.02,0.03,1.04,5.04,2.87,-2.38
-0.03,0.03,1.04,4.97,2.52,-2.52
-0.04,0.04,1.04,4.41,1.54,-2.8
-0.04,0.04,1.03,4.2,1.12,-3.15
-0.04,0.04,1.03,4.55,0.56,-2.66
-0.05,0.05,1.02,4.34,-0.63,-2.31
-0.05,0.05,1.02,3.71,-1.82,-1.96
-0.05,0.05,1.01,3.36,-3.5,-0.98
-0.04,0.06,1.02,3.5,-4.76,-1.47
-0.04,0.05,1.03,3.5,-4.97,-2.03
-0.04,0.05,1.03,2.52,-4.97,-2.45
-0.04,0.06,1.04,1.82,-4.48,-3.29
-0.04,0.06,1.04,0.07,-1.89,-4.06
-0.05,0.05,1.04,-0.28,-0.35,-3.78
-0.06,0.05,1.05,-0.49,0,-3.5
-0.06,0.04,1.05,-0.07,-0.56,-3.22
-0.06,0.05,1.05,0.28,-0.98,-2.94
-0.06,0.04,1.05,0.63,-0.63,-2.59
-0.06,0.05,1.05,1.19,-0.91,-2.87
-0.06,0.05,1.05,2.24,-0.84,-3.08
-0.06,0.05,1.05,2.87,0.07,-3.15
-0.06,0.05,1.04,3.29,0.56,-2.45
-0.06,0.05,1.04,3.29,0.77,-2.03
-0.06,0.06,1.03,2.59,0.77,-1.89
-0.06,0.05,1.03,1.82,0.14,-1.68
-0.06,0.06,1.02,1.54,-0.56,-1.96
-0.05,0.06,1.04,0.42,-0.63,-2.24
-0.05,0.05,1.04,0.7,-0.63,-2.52
-0.05,0.05,1.04,1.54,-0.49,-2.38
-0.05,0.06,1.04,1.89,-0.21,-1.82
-0.05,0.06,1.05,1.89,0.49,-2.31
-0.05,0.06,1.05,2.17,1.26,-2.38
-0.05,0.07,1.04,2.24,1.05,-2.52
-0.06,0.07,1.04,1.96,-0.07,-2.38
-0.05,0.07,1.04,1.61,-0.7,-2.03
-0.05,0.06,1.04,1.54,-1.47,-2.31
-0.05,0.07,1.05,1.54,-2.31,-3.08
-0.05,0.07,1.05,1.26,-2.94,-3.08
-0.05,0.07,1.05,1.47,-2.87,-2.94
-0.04,0.06,1.05,1.89,-2.59,-2.8
-0.05,0.06,1.05,2.45,-2.87,-2.59
-0.05,0.07,1.05,3.01,-3.29,-1.89
-0.05,0.07,1.05,3.01,-3.29,-2.03
-0.05,0.07,1.05,3.92,-2.45,-2.38
-0.06,0.07,1.05,4.13,-2.87,-2.31
-0.07,0.07,1.05,3.22,-3.57,-1.33
-0.07,0.07,1.05,2.45,-3.78,-1.75
-0.06,0.06,1.05,1.96,-3.57,-1.96
-0.07,0.06,1.05,2.03,-3.5,-1.33
-0.07,0.05,1.04,2.03,-3.43,-0.63
-0.07,0.04,1.04,2.45,-2.94,0.42
-0.07,0.04,1.03,3.15,-2.73,1.05
-0.08,0.04,1.02,3.71,-3.08,2.31
-0.08,0.04,1.01,3.92,-3.08,3.64
-0.07,0.04,1,3.29,-3.01,4.69
-0.07,0.05,0.99,1.82,-3.64,5.11
-0.06,0.05,0.99,0.7,-4.27,5.18
-0.06,0.06,1,-1.26,-4.06,5.32
-0.05,0.06,1.01,-1.89,-2.94,4.97
-0.04,0.05,1.01,-1.4,-2.45,4.97
-0.04,0.06,1.03,-1.4,-2.38,4.9
-0.03,0.06,1.03,-1.54,-1.68,4.41
-0.03,0.06,1.05,-1.05,-1.19,3.29
-0.03,0.07,1.06,-0.63,-1.12,2.31
-0.03,0.07,1.06,-0.35,-1.68,1.19
-0.02,0.07,1.07,-0.28,-2.17,0.21
-0.02,0.07,1.08,0.49,-2.03,-0.77
-0.02,0.07,1.07,1.4,-2.38,-1.75
-0.01,0.07,1.07,2.31,-1.75,-2.73
-0.02,0.08,1.07,2.73,-1.33,-3.43
-0.02,0.07,1.06,3.29,-1.61,-4.2
-0.02,0.07,1.06,4.69,-1.75,-5.04
-0.03,0.07,1.05,5.6,-1.82,-4.9
-0.04,0.07,1.04,5.95,-1.82,-4.9
-0.04,0.08,1.03,5.74,-2.31,-4.83
-0.05,0.08,1.02,4.83,-2.52,-4.76
-0.06,0.07,1.02,3.99,-2.73,-4.27
-0.06,0.07,1.02,3.85,-2.87,-3.29
-0.07,0.07,1.02,3.22,-3.29,-2.8
-0.07,0.07,1.02,2.59,-3.5,-2.17
-0.07,0.06,1.02,2.24,-3.71,-2.03
-0.07,0.06,1.03,2.73,-3.85,-0.91
-0.08,0.06,1.03,3.01,-4.55,0.07
-0.07,0.06,1.03,3.08,-4.69,0.35
-0.06,0.07,1.04,3.64,-4.27,0.77
-0.06,0.07,1.04,3.5,-3.85,1.61
-0.06,0.07,1.04,3.78,-3.92,1.96
-0.05,0.07,1.04,3.78,-3.92,2.03
-0.04,0.07,1.04,4.06,-3.71,1.47
-0.03,0.08,1.04,4.69,-3.78,0.56
-0.03,0.08,1.04,5.53,-3.92,0.42
-0.02,0.09,1.03,5.46,-4.06,-0.35
-0.01,0.09,1.04,4.62,-3.5,-1.89
-0.01,0.1,1.04,3.36,-2.45,-3.43
-0.01,0.09,1.05,2.87,-2.17,-4.34
-0.02,0.09,1.06,2.73,-1.89,-6.02
-0.02,0.09,1.06,2.73,-1.89,-6.72
-0.03,0.08,1.06,2.59,-1.96,-7.21
-0.04,0.08,1.06,2.31,-2.17,-7.35
-0.05,0.07,1.07,2.73,-1.54,-7.77
-0.06,0.06,1.07,2.66,0.35,-8.4
-0.07,0.05,1.06,3.71,1.19,-7.14
-0.09,0.04,1.03,4.48,1.33,-5.25
-0.1,0.04,1.02,5.18,0.28,-2.17
-0.11,0.04,0.99,5.11,-1.19,0.14
-0.11,0.04,0.97,3.78,-2.17,1.4
-0.11,0.04,0.96,2.17,-3.5,3.08
-0.11,0.04,0.95,0.49,-4.41,5.18
-0.11,0.05,0.95,-2.31,-4.9,6.93
-0.1,0.04,0.96,-4.2,-4.83,8.33
-0.09,0.04,0.97,-6.02,-4.55,9.1
-0.07,0.04,0.98,-7.7,-4.2,9.45
-0.06,0.04,1.01,-8.33,-3.43,9.24
-0.05,0.04,1.03,-8.26,-1.82,8.54
-0.04,0.04,1.03,-8.12,-0.91,7.84
-0.04,0.05,1.04,-8.19,-1.12,7
-0.03,0.05,1.06,-7.91,-0.84,6.3
-0.02,0.06,1.07,-7.56,17.78,4.2
-0.01,0.06,1.08,-6.44,0.98,2.03
0,0.07,1.07,-5.95,1.54,-0.49
0,0.07,1.07,-6.02,1.47,-2.8
0,0.07,1.07,-4.9,1.68,-3.71
-0.01,0.07,1.07,-3.57,1.4,-4.62
0,0.07,1.06,-2.87,1.47,-5.88
-0.01,0.08,1.06,-3.01,2.59,-7.63
-0.02,0.07,1.05,-2.8,3.01,-8.19
-0.03,0.06,1.05,-1.75,2.31,-8.33
-0.04,0.06,1.04,-1.4,1.19,-8.26
-0.05,0.06,1.04,-0.91,0.28,-8.33
-0.05,0.06,1.04,-0.28,-0.56,-7.7
-0.06,0.06,1.04,-0.35,-1.33,-7.21
-0.06,0.05,1.04,-0.56,-2.45,-6.44
-0.06,0.05,1.05,-0.42,-2.66,-5.88
-0.07,0.05,1.05,-0.14,-2.73,-5.46
-0.07,0.05,1.04,0,-4.06,-4.34
-0.07,0.05,1.04,0.28,-5.6,-3.08
-0.06,0.05,1.04,0.07,-5.74,-3.08
-0.06,0.05,1.04,-0.49,-4.76,-3.5
-0.06,0.05,1.04,-0.28,-4.2,-4.27
-0.06,0.05,1.03,-0.28,-3.92,-4.13
-0.06,0.05,1.03,-0.84,-3.43,-3.64
-0.07,0.06,1.04,-1.82,-2.87,-3.92
-0.06,0.05,1.05,-1.33,-2.45,-4.13
-0.06,0.05,1.05,-0.56,-1.82,-4.9
-0.06,0.05,1.05,-0.42,-1.19,-5.04
-0.07,0.05,1.05,-0.21,-1.68,-4.55
-0.06,0.05,1.05,0.56,-2.17,-4.2
-0.06,0.05,1.05,1.4,-2.45,-3.78
-0.05,0.06,1.04,1.12,-2.38,-3.5
-0.04,0.06,1.04,1.33,-2.31,-3.5
-0.04,0.06,1.04,1.12,-2.59,-4.06
-0.04,0.06,1.04,0.56,-2.66,-4.13
-0.04,0.05,1.05,0.49,-2.59,-4.62
-0.04,0.05,1.05,1.47,-3.08,-4.55
-0.05,0.05,1.05,2.38,-3.57,-3.85
-0.05,0.05,1.05,1.89,-3.78,-3.78
-0.04,0.05,1.04,1.68,-3.29,-5.18
-0.05,0.05,1.05,1.61,-2.31,-5.81
-0.06,0.04,1.04,1.96,-2.59,-5.04
-0.06,0.04,1.04,2.45,-3.43,-3.99
-0.06,0.04,1.04,2.87,-4.55,-3.92
-0.05,0.05,1.04,2.59,-4.55,-4.2
-0.05,0.05,1.04,2.52,-3.85,-4.55
-0.05,0.05,1.03,2.24,-3.78,-4.83
-0.05,0.05,1.03,2.03,-4.34,-4.55
-0.05,0.04,1.03,1.54,-4.83,-4.55
-0.05,0.05,1.04,1.54,-4.34,-5.04
-0.05,0.05,1.04,1.05,-3.57,-5.81
-0.04,0.04,1.04,1.47,-3.15,-6.02
-0.05,0.04,1.04,2.1,-2.8,-5.95
-0.05,0.05,1.04,2.52,-3.08,-4.97
-0.05,0.05,1.03,2.66,-4.34,-4.62
-0.05,0.05,1.03,1.75,-4.97,-4.83
-0.04,0.05,1.04,1.96,-4.83,-5.74
-0.05,0.06,1.05,1.89,-3.36,-6.44
-0.05,0.05,1.04,1.89,-3.01,-6.65
-0.05,0.05,1.05,2.1,-2.45,-6.16
-0.05,0.05,1.04,2.38,-2.52,-5.04
-0.05,0.05,1.04,2.38,-3.15,-4.62
-0.05,0.05,1.04,2.17,-3.78,-4.9
-0.05,0.05,1.04,2.38,-4.48,-4.83
-0.04,0.05,1.04,2.31,-4.69,-5.6
-0.04,0.05,1.04,2.24,-4.41,-6.51
-0.04,0.05,1.05,2.59,-3.5,-7.14
-0.04,0.05,1.04,3.22,-2.8,-7
-0.04,0.05,1.04,3.22,-2.66,-7
-0.04,0.05,1.04,2.87,-2.94,-7.07
-0.04,0.05,1.03,3.29,-3.57,-7.21
-0.04,0.05,1.03,3.64,-4.27,-7.07
-0.04,0.06,1.03,2.8,-4.48,-7.21
-0.04,0.06,1.03,1.96,-4.27,-7.28
-0.04,0.06,1.03,1.4,-4.06,-7.35
-0.04,0.05,1.03,1.47,-3.71,-7
-0.04,0.05,1.03,1.75,-3.57,-6.16
-0.05,0.06,1.03,1.61,-3.78,-6.51
-0.04,0.05,1.03,1.19,-3.99,-6.51
-0.05,0.05,1.04,0.98,-4.13,-6.44
-0.05,0.05,1.03,0.98,-4.62,-6.3
-0.05,0.05,1.03,0.7,-5.04,-5.95
-0.05,0.05,1.04,1.33,-4.97,-5.46
-0.04,0.05,1.04,1.19,-4.48,-5.74
-0.04,0.05,1.04,1.19,-3.92,-5.6
-0.04,0.05,1.04,1.54,-3.71,-5.88
-0.04,0.05,1.04,1.89,-3.85,-5.53
-0.04,0.06,1.03,1.96,-3.78,-5.6
-0.04,0.06,1.03,0.91,-3.08,-6.3
-0.04,0.06,1.03,-0.21,-3.22,-6.3
-0.05,0.05,1.04,-0.63,-4.27,-5.95
-0.04,0.05,1.04,-0.14,-4.97,-6.37
-0.04,0.05,1.05,0.49,-4.69,-6.58
-0.04,0.04,1.05,1.12,-4.2,-6.37
-0.03,0.04,1.05,1.19,-3.57,-5.95
-0.03,0.04,1.04,1.61,-3.01,-6.02
-0.03,0.04,1.04,2.66,-2.59,-6.37
-0.03,0.04,1.03,3.22,-2.8,-6.23
-0.03,0.05,1.02,3.08,-3.29,-5.95
-0.03,0.05,1.02,1.96,-3.64,-5.88
-0.03,0.05,1.02,0.77,-3.99,-6.09
-0.03,0.05,1.02,-0.14,-4.13,-6.37
-0.03,0.05,1.02,-0.98,-4.62,-6.86
-0.03,0.05,1.03,-0.56,-4.62,-7.28
-0.03,0.04,1.03,-0.56,-4.76,-6.93
-0.04,0.04,1.03,-1.12,-4.83,-7
-0.03,0.04,1.04,-1.05,-4.9,-7.42
-0.03,0.04,1.05,-0.21,-4.48,-7.98
-0.03,0.04,1.04,0.63,-3.64,-8.47
-0.04,0.04,1.04,0.84,-3.57,-8.47
-0.04,0.04,1.03,0.42,-3.85,-8.4
-0.04,0.04,1.04,-0.28,-3.92,-8.68
-0.04,0.04,1.04,-0.14,-3.71,-9.24
-0.04,0.04,1.04,0.56,-3.57,-9.8
-0.04,0.04,1.04,0.42,-3.43,-11.13
-0.03,0.04,1.05,0.84,-2.59,-11.41
-0.04,0.03,1.03,0.63,-2.52,-10.99
-0.04,0.04,1.04,1.47,-2.66,-10.5
-0.04,0.03,1.03,1.26,-3.43,-11.2
-0.03,0.03,1.04,1.26,-3.01,-11.76
-0.03,0.04,1.03,1.05,-2.66,-12.18
-0.04,0.03,1.03,0.91,-3.01,-12.04
-0.03,0.03,1.03,0.98,-3.43,-11.62
-0.03,0.04,1.03,0.84,-2.94,-12.04
-0.03,0.03,1.03,0.84,-2.94,-12.18
-0.03,0.03,1.03,0.7,-3.22,-12.74
-0.02,0.04,1.03,0.49,-3.08,-13.72
-0.02,0.04,1.03,-0.35,-3.08,-14.42
-0.02,0.03,1.04,-0.56,-3.29,-14.91
-0.02,0.04,1.04,-0.7,-2.94,-15.19
-0.02,0.04,1.04,-0.84,-2.8,-15.33
-0.02,0.04,1.04,-0.56,-3.15,-15.12
-0.02,0.04,1.04,-0.63,-3.64,-15.12
-0.02,0.04,1.04,-0.7,-3.57,-15.75
-0.02,0.04,1.04,-0.77,-3.22,-16.38
-0.03,0.04,1.04,-1.05,-3.43,-16.24
-0.04,0.05,1.03,-1.33,-4.06,-15.75
-0.03,0.04,1.04,-1.19,-4.34,-15.75
-0.03,0.04,1.04,-1.54,-3.85,-15.89
-0.03,0.05,1.04,-1.47,-3.36,-16.03
-0.03,0.04,1.04,-1.82,-3.57,-16.1
-0.04,0.04,1.04,-2.1,-4.41,-15.75
-0.04,0.04,1.05,-1.75,-4.9,-15.05
-0.04,0.04,1.05,-1.19,-5.6,-14.84
-0.03,0.04,1.05,-0.91,-5.95,-14.7
-0.03,0.04,1.05,-1.12,-6.23,-14.56
-0.03,0.04,1.05,-1.26,-6.16,-14.56
-0.02,0.03,1.05,-0.63,-5.81,-14.84
-0.02,0.03,1.05,0.7,-5.25,-14.91
-0.02,0.03,1.04,0.91,-5.11,-15.19
-0.02,0.03,1.03,1.05,-5.88,-15.33
-0.01,0.03,1.03,1.33,-6.3,-15.96
-0.01,0.04,1.03,0.42,-5.18,-17.08
-0.01,0.04,1.01,-1.12,-4.83,-17.64
-0.02,0.04,1.02,-2.31,-4.97,-17.78
-0.02,0.04,1.03,-3.15,-4.76,-18.2
-0.02,0.03,1.04,-3.15,-4.41,-18.69
-0.02,0.03,1.05,-2.94,-4.34,-19.04
-0.03,0.03,1.06,-2.17,-4.55,-19.11
-0.03,0.02,1.06,-1.47,-4.34,-19.32
-0.03,0.02,1.05,-0.49,-4.41,-18.55
-0.03,0.03,1.05,0.35,-4.9,-17.36
-0.03,0.03,1.04,-17.71,-5.53,-16.87
-0.02,0.03,1.03,-0.35,-5.95,-16.94
-0.01,0.04,1.03,-0.35,-6.09,-17.92
-0.01,0.04,1.03,-0.56,-5.25,-18.48
-0.02,0.04,1.03,-1.54,-5.39,-18.69
-0.02,0.03,1.03,-1.33,-5.88,-18.69
-0.01,0.04,1.05,-1.19,-6.02,-18.97
-0.01,0.04,1.05,-1.19,-5.04,-19.67
-0.01,0.03,1.05,-1.05,-4.9,-20.09
-0.02,0.03,1.05,-0.98,-4.83,-19.88
-0.02,0.03,1.05,-0.91,-5.39,-19.6
-0.02,0.02,1.06,0.07,-5.81,-19.53
-0.02,0.03,1.05,0.56,-6.23,-19.32
-0.01,0.03,1.04,0,-6.58,-20.09
-0.01,0.03,1.05,-17.92,-6.23,-20.65
-0.01,0.03,1.04,0,-5.6,-20.44
-0.01,0.02,1.04,0.7,-4.76,-20.58
-0.01,0.02,1.04,1.4,-3.99,-20.58
-0.01,0.03,1.04,1.47,-3.78,-21.21
-0.02,0.03,1.03,1.12,-4.06,-21.07
-0.02,0.03,1.03,1.12,-4.62,-20.86
-0.02,0.03,1.03,0.84,-4.48,-20.93
-0.02,0.03,1.03,0.77,-3.92,-21.07
-0.02,0.03,1.02,0.56,-4.13,-20.86
-0.02,0.03,1.02,0.21,-3.99,-20.72
-0.01,0.03,1.03,-0.14,-3.71,-20.86
-0.02,0.03,1.03,-0.14,-3.43,-21.35
-0.02,0.03,1.03,-0.35,-3.78,-21.7
-0.02,0.03,1.04,-0.56,-3.92,-21.49
-0.02,0.02,1.04,-0.28,-3.92,-21.49
-0.02,0.02,1.04,0.14,-3.71,-21.21
-0.02,0.03,1.05,0.35,-3.43,-20.79
-0.02,0.03,1.05,0.77,-3.15,-21.28
-0.02,0.03,1.05,1.05,-2.8,-21.77
-0.02,0.03,1.04,0.91,-2.66,-21.42
-0.02,0.03,1.04,1.19,-2.66,-21.49
-0.01,0.03,1.04,1.82,-2.38,-21.28
-0.02,0.03,1.04,1.96,-2.38,-20.51
-0.02,0.03,1.03,1.82,-2.87,-20.65
-0.01,0.03,1.03,1.4,-3.01,-20.79
-0.01,0.03,1.03,0.84,-3.22,-21
-0.01,0.03,1.03,1.12,-3.15,-21.91
-0.02,0.03,1.04,0.91,-3.01,-21.91
-0.02,0.03,1.04,0.28,-3.08,-21.77
-0.01,0.03,1.05,0.77,-3.15,-21.7
-0.01,0.03,1.05,1.54,-2.31,-21.91
-0.01,0.03,1.04,1.68,-2.1,-22.12
-0.01,0.03,1.05,1.68,-2.52,-22.19
-0.02,0.03,1.05,1.89,-2.45,-22.47
-0.02,0.03,1.05,2.52,-2.38,-21.91
-0.02,0.03,1.05,2.73,-2.45,-21.91
-0.01,0.03,1.04,3.08,-2.66,-22.33
-0.02,0.03,1.04,3.36,-2.66,-21.7
-0.01,0.03,1.04,3.15,-2.31,-21.42
-0.01,0.03,1.03,3.08,-2.59,-21.35
-0.01,0.03,1.02,2.8,-3.36,-21.07
0,0.04,1.03,2.24,-3.78,-21.7
0,0.04,1.04,0.91,-2.87,-22.68
-0.01,0.03,1.04,0.7,-2.8,-22.75
-0.01,0.03,1.05,1.05,-3.08,-23.1
-0.01,0.03,1.05,1.96,-3.5,-22.75
-0.01,0.03,1.05,2.45,-3.01,-22.26
-0.01,0.03,1.04,2.52,-2.66,-21.84
-0.01,0.02,1.04,3.22,-4.41,-21.28
-0.02,0.05,1.05,3.08,-4.55,-21.28
-0.02,0.04,1.03,2.52,-4.97,-21.77
-0.01,0.03,1.03,3.36,-4.76,-20.93
-0.01,0.04,1.03,3.22,-4.2,-21.21
-0.02,0.04,1.03,2.45,-3.85,-20.93
-0.02,0.03,1.03,2.66,-3.64,-19.95
-0.03,0.04,1.03,2.73,-3.71,-19.74
-0.03,0.04,1.03,1.96,-3.92,-19.46
-0.03,0.04,1.03,2.03,-4.06,-19.18
-0.04,0.05,1.03,1.96,-4.41,-18.27
-0.04,0.05,1.03,1.05,-4.2,-17.36
-0.03,0.04,1.04,1.05,-3.99,-16.59
-0.03,0.04,1.04,1.68,-3.78,-15.68
-0.04,0.05,1.03,2.1,-3.78,-14.77
-0.03,0.05,1.03,2.03,-3.71,-13.72
-0.03,0.05,1.03,1.47,-3.57,-13.37
-0.02,0.06,1.03,1.61,-3.36,-13.02
-0.02,0.06,1.04,1.54,-2.87,-13.09
-0.02,0.06,1.04,1.05,-2.66,-12.39
-0.02,0.06,1.04,1.05,-2.73,-11.69
-0.02,0.06,1.05,1.26,-2.94,-10.85
-0.02,0.07,1.05,1.68,-2.52,-10.57
-0.02,0.07,1.06,2.38,-2.31,-9.8
-0.02,0.07,1.05,2.73,-2.24,-8.75
-0.02,0.07,1.06,2.94,-2.24,-7.98
-0.02,0.07,1.05,3.08,-2.31,-7.35
-0.02,0.07,1.05,3.57,-2.1,-6.23
-0.02,0.07,1.05,3.71,-1.75,-5.18
-0.03,0.07,1.04,3.01,-1.61,-4.48
-0.03,0.07,1.04,3.08,-2.1,-3.22
-0.03,0.06,1.04,3.5,-2.52,-1.82
-0.03,0.06,1.04,3.5,-2.8,-0.91
-0.03,0.06,1.04,3.43,-2.66,0.07
-0.03,0.05,1.03,2.8,-2.45,1.47
-0.03,0.05,1.03,2.66,-2.52,2.73
-0.03,0.05,1.03,2.66,-2.38,3.85
-0.03,0.05,1.02,3.01,-2.45,4.62
-0.03,0.05,1.02,2.03,-2.94,5.53
-0.03,0.05,1.02,1.26,-3.15,6.51
-0.03,0.05,1.02,0.63,-3.29,7.14
-0.02,0.04,1.02,0.49,-3.08,8.26
-0.01,0.05,1.02,-0.21,-2.45,8.68
-0.01,0.04,1.03,-0.98,-2.24,8.82
-0.01,0.04,1.03,-1.12,-2.17,8.4
0,0.04,1.04,-0.84,-1.75,8.26
0,0.04,1.04,-0.7,-1.33,8.4
0,0.04,1.04,-0.42,-1.26,8.82
-0.05,0.1,1.03,0.98,-5.39,-2.59
-0.05,0.11,1.04,0.84,-4.97,-1.61
-0.05,0.11,1.03,0.77,-5.04,-1.26
-0.04,0.11,1.04,0.91,-4.69,-0.77
-0.04,0.11,1.04,0.91,-3.99,-0.28
-0.04,0.12,1.03,0.63,-3.78,0.14
-0.04,0.12,1.03,0.49,-4.48,0.35
-0.04,0.11,1.03,0.98,-4.97,1.05
-0.03,0.11,1.04,0.77,-4.9,0.98
-0.03,0.11,1.04,0.98,-3.71,0.84
-0.04,0.11,1.04,1.4,-3.57,1.19
-0.04,0.11,1.04,1.19,-3.85,2.17
-0.04,0.1,1.04,1.33,-4.27,2.66
-0.04,0.1,1.04,1.75,-3.92,3.15
-0.04,0.1,1.04,1.96,-3.08,3.22
-0.04,0.09,1.03,1.96,-3.08,4.2
-0.05,0.09,1.02,2.03,-3.64,5.39
-0.04,0.09,1.02,1.68,-3.15,5.74
-0.03,0.09,1.02,1.82,-2.17,5.53
-0.03,0.09,1.01,1.4,-2.1,5.6
-0.04,0.09,1,0,-2.45,6.37
-0.03,0.09,1.01,-1.61,-2.59,6.86
-0.03,0.08,1.02,-2.73,-2.73,7.42
-0.03,0.08,1.03,-3.64,-3.43,7.56
-0.03,0.07,1.04,-3.92,-3.78,8.33
-0.03,0.07,1.05,-3.43,-4.48,9.38
-0.02,0.07,1.06,-2.31,-4.76,10.5
-0.01,0.07,1.06,-0.77,-5.18,11.06
0,0.08,1.05,0.7,-5.04,10.78
0.01,0.09,1.06,1.75,-4.83,9.38
0.02,0.1,1.06,2.45,-2.17,8.61
0.02,0.1,1.05,2.8,0.63,7.77
0,0.1,1.02,3.5,-2.03,6.44
0.01,0.11,1.03,2.45,-3.71,4.2
0,0.1,1.03,1.68,-4.55,3.78
0.01,0.1,1.03,2.1,-3.57,3.08
0,0.1,1.02,1.89,-2.59,1.68
-0.01,0.1,1.02,1.47,-1.61,1.61
-0.02,0.09,1.02,0.98,-0.7,1.26
-0.02,0.09,1.02,0.98,0.91,1.4
-0.03,0.07,1.01,2.52,2.17,1.75
-0.05,0.09,1.01,1.33,2.66,2.52
-0.06,0.1,1,-0.35,1.96,3.36
-0.06,0.09,1,-1.12,1.19,5.32
-0.06,0.1,1,-1.89,0.91,6.58
-0.06,0.1,1,-3.36,1.05,7.98
-0.07,0.1,1.01,-4.9,1.54,9.52
-0.07,0.1,1.01,-5.81,1.68,11.69
-0.07,0.09,1.02,-6.09,1.68,13.44
-0.07,0.09,1.03,-5.04,1.4,14.91
-0.07,0.1,1.03,-4.41,1.4,16.38
-0.07,0.1,1.03,-4.2,1.05,17.99
-0.07,0.11,1.04,-4.48,1.12,19.25
-0.07,0.11,1.04,-4.55,1.12,20.44
-0.07,0.11,1.04,-4.34,0.91,21.63
-0.07,0.11,1.04,-4.2,1.54,22.68
-0.07,0.11,1.05,-4.41,2.03,23.94
-0.07,0.09,1.05,-3.15,1.82,26.39
-0.07,0.13,1.05,-3.5,2.38,26.6
-0.07,0.11,1.05,-3.29,1.89,27.86
-0.07,0.11,1.05,-2.1,1.82,30.03
-0.07,0.12,1.05,-1.54,1.26,30.66
-0.06,0.11,1.05,-0.77,1.33,31.15
-0.06,0.1,1.05,-0.28,1.75,32.2
-0.06,0.11,1.05,-1.05,2.59,32.83
-0.06,0.1,1.05,-1.19,3.15,33.32
-0.07,0.09,1.05,-1.12,2.94,34.58
-0.07,0.08,1.05,-0.84,2.1,35.63
-0.07,0.08,1.04,-0.35,1.61,36.96
-0.06,0.08,1.04,0.56,1.47,37.59
-0.06,0.08,1.04,0.91,1.61,38.01
-0.06,0.08,1.03,0.49,1.47,38.57
-0.05,0.08,1.03,-0.28,1.75,39.34
-0.05,0.07,1.03,-0.98,2.24,39.76
-0.05,0.07,1.03,-1.19,2.66,40.04
-0.05,0.07,1.03,-1.54,2.94,40.39
-0.05,0.07,1.03,-2.1,2.94,41.23
-0.05,0.07,1.03,-2.66,2.45,41.23
-0.05,0.07,1.03,-3.08,2.17,41.79
-0.05,0.06,1.04,-3.43,1.12,42.14
-0.05,0.06,1.04,-2.8,0.21,42.42
-0.05,0.06,1.05,-2.24,-0.28,42.84
-0.04,0.06,1.05,-2.45,-0.14,43.26
-0.03,0.06,1.05,-2.8,0.49,42.84
-0.03,0.05,1.06,-2.45,0.98,42.21
-0.02,0.05,1.05,-2.03,1.61,41.3
-0.02,0.05,1.05,-1.61,1.54,40.81
-0.03,0.05,1.04,-0.77,1.12,40.46
-0.03,0.05,1.04,-0.98,1.19,40.04
-0.03,0.06,1.04,-1.4,0.7,39.27
-0.03,0.06,1.03,-1.68,0.42,38.36
-0.03,0.06,1.03,-2.45,0.07,38.01
-0.04,0.06,1.04,-2.8,-0.28,37.45
-0.04,0.05,1.04,-2.8,-0.7,36.96
-0.04,0.05,1.05,-1.89,-1.05,36.96
-0.04,0.05,1.05,-1.05,-1.4,36.96
-0.04,0.05,1.05,-0.21,-1.61,36.54
-0.04,0.05,1.04,0.28,-1.54,35.49
-0.03,0.05,1.05,0.49,-1.19,34.65
-0.04,0.04,1.05,0.91,-0.91,34.02
-0.04,0.04,1.04,1.54,-1.05,33.88
-0.03,0.04,1.04,1.4,-1.19,33.11
-0.03,0.04,1.04,1.26,-1.12,31.71
-0.03,0.04,1.04,1.82,-0.98,30.24
-0.03,0.04,1.04,1.89,-0.63,29.12
-0.03,0.04,1.04,1.82,-0.77,28.14
-0.03,0.04,1.04,2.03,-0.91,27.51
-0.03,0.04,1.05,2.17,-1.19,26.32
-0.02,0.03,1.04,2.52,-1.12,25.41
-0.02,0.03,1.04,2.38,-1.19,24.5
-0.02,0.03,1.04,2.24,-1.4,23.59
-0.02,0.03,1.04,1.4,-1.26,21.91
-0.02,0.03,1.05,2.1,-0.91,20.44
-0.02,0.03,1.04,2.45,-0.63,19.11
-0.02,0.02,1.04,2.94,-0.7,17.92
-0.02,0.03,1.04,3.43,-0.7,16.94
-0.02,0.03,1.04,3.29,-0.63,15.61
-0.02,0.03,1.04,3.01,-0.7,14.28
-0.02,0.03,1.03,2.59,-0.91,13.44
-0.03,0.03,1.04,2.1,-1.61,12.46
-0.03,0.03,1.03,2.1,-1.89,11.41
-0.02,0.03,1.03,2.45,-1.61,10.57
-0.03,0.04,1.02,2.1,-2.59,10.15
-0.03,0.04,1.02,1.82,-3.43,9.45
-0.02,0.04,1.03,1.75,-3.36,8.12
-0.02,0.04,1.03,1.75,-2.59,6.72
-0.02,0.04,1.03,1.89,-2.1,5.6
-0.03,0.05,1.03,1.4,-2.17,5.11
-0.03,0.05,1.04,0.42,-2.03,3.92
-0.03,0.05,1.04,0.21,-2.45,2.87
-0.03,0.05,1.05,1.12,-3.22,2.24
-0.03,0.05,1.05,1.61,-3.71,1.54
-0.03,0.05,1.05,2.1,-3.78,0.91
-0.03,0.05,1.05,2.52,-2.87,0.28
-0.03,0.06,1.05,2.73,-2.1,-0.63
-0.04,0.06,1.05,3.15,-1.89,-1.61
-0.04,0.06,1.05,3.29,-2.45,-2.38
-0.04,0.06,1.05,3.64,-3.15,-2.52
-0.04,0.06,1.05,4.13,-4.06,-3.29
-0.04,0.06,1.05,4.55,-5.11,-3.22
-0.03,0.07,1.05,4.83,-5.46,-4.06
-0.03,0.07,1.05,4.55,-4.62,-4.97
-0.03,0.07,1.04,4.69,-4.34,-5.74
-0.04,0.07,1.04,4.9,-4.76,-6.16
-0.04,0.07,1.04,4.69,-5.18,-6.37
-0.04,0.07,1.04,4.34,-5.53,-6.65
-0.04,0.07,1.05,4.06,-6.02,-6.79
-0.04,0.06,1.05,5.11,-6.58,-6.37
-0.04,0.07,1.05,6.02,-6.65,-6.37
-0.04,0.07,1.04,6.23,-6.02,-6.44
-0.04,0.08,1.03,6.09,-5.74,-6.93
-0.04,0.09,1.03,5.67,-5.88,-7.07
-0.05,0.09,1.03,4.9,-6.37,-7.63
-0.05,0.1,1.04,3.64,-6.79,-7.42
-0.06,0.09,1.05,2.94,-7.63,-7.21
-0.05,0.08,1.07,3.71,-8.54,-6.79
-0.05,0.09,1.07,4.76,-8.68,-6.51
-0.05,0.08,1.07,5.74,-8.19,-5.81
-0.05,0.08,1.07,7.49,-7.77,-5.6
-0.04,0.09,1.06,9.24,-7.7,-5.46
-0.04,0.09,1.04,10.22,-6.93,-4.97
-0.04,0.1,1.03,10.85,-7.07,-4.34
-0.05,0.1,1.02,10.71,-7.14,-4.41
-0.04,0.11,1.01,9.45,-7.21,-4.48
-0.05,0.11,1.01,7.35,-7.14,-4.48
-0.04,0.11,1.01,5.46,-7.14,-4.48
-0.04,0.1,1.03,4.97,-6.93,-4.55
-0.04,0.09,1.03,5.6,-6.16,-4.34
-0.04,0.09,1.04,7.14,-5.25,-4.2
-0.04,0.09,1.03,7.7,-4.34,-3.57
-0.05,0.1,1.02,7.42,-3.71,-2.8
-0.05,0.11,1.01,6.51,-3.22,-2.17
-0.05,0.11,1,5.04,-3.5,-2.03
-0.05,0.11,1,4.2,-4.13,-0.91
-0.05,0.1,1,3.57,-4.9,-0.35
-0.04,0.1,1.01,2.8,-4.83,0.35
-0.03,0.1,1.01,2.8,-3.99,0.98
-0.03,0.09,1.02,2.94,-2.73,0.7
-0.03,0.1,1.01,2.59,-0.42,0.28
-0.03,0.1,1.01,2.31,1.12,0.21
-0.04,0.1,1.01,1.47,1.4,0.28
-0.04,0.1,1.01,0.77,1.12,0.56
-0.04,0.11,1.01,-0.14,0.77,0.91
-0.04,0.11,1.02,-1.26,0.63,1.12
-0.04,0.11,1.02,-2.03,0.98,1.82
-0.04,0.1,1.03,-2.45,1.26,2.31
-0.03,0.1,1.04,-2.24,1.61,2.52
-0.03,0.1,1.05,-1.33,2.03,2.59
-0.03,0.1,1.04,-0.42,1.89,2.94
-0.03,0.1,1.04,0.07,1.47,3.08
-0.03,0.11,1.04,-0.35,1.05,2.94
-0.02,0.1,1.04,-0.28,0.56,2.8
-0.02,0.1,1.03,-0.07,0.21,2.38
-0.02,0.1,1.03,-0.49,0.35,2.24
-0.02,0.1,1.03,-1.12,0.63,2.31
-0.02,0.1,1.03,-1.96,1.68,2.31
-0.03,0.1,1.03,-2.59,1.75,1.96
-0.03,0.09,1.03,-2.31,1.47,1.54
-0.03,0.09,1.04,-2.38,1.47,1.61
-0.03,0.09,1.04,-1.82,1.05,1.82
-0.04,0.09,1.04,-1.05,0.63,1.68
-0.03,0.09,1.04,-0.91,0.77,1.47
-0.04,0.1,1.04,-1.26,1.19,1.4
-0.04,0.1,1.03,-1.75,1.12,1.96
-0.04,0.09,1.04,-2.24,0.98,2.31
-0.04,0.09,1.04,-2.17,0.7,2.52
-0.04,0.09,1.04,-1.75,0.63,2.17
-0.04,0.09,1.04,-0.77,0.84,2.17
-0.04,0.1,1.04,-0.91,0.98,2.59
-0.04,0.09,1.04,-0.98,0.42,3.36
-0.04,0.1,1.04,-1.12,-0.14,3.71
-0.04,0.09,1.04,-1.47,-0.49,3.99
-0.04,0.09,1.04,-1.12,-0.98,4.06
-0.04,0.09,1.05,-0.56,-1.54,4.13
-0.04,0.09,1.04,0.21,-1.68,4.27
-0.04,0.09,1.04,0.35,-1.68,4.76
-0.04,0.09,1.03,0.14,-2.17,5.39
-0.04,0.09,1.03,-0.42,-2.52,5.32
-0.03,0.09,1.03,-1.05,-1.33,5.32
-0.03,0.09,1.03,-1.68,-0.63,5.25
-0.03,0.09,1.03,-1.68,-1.12,4.2
-0.03,0.09,1.04,-1.05,-0.56,3.43
-0.04,0.08,1.04,-0.7,0,4.2
-0.04,0.09,1.04,-0.91,-0.07,4.41
-0.04,0.09,1.04,-1.05,-0.49,3.99
-0.04,0.09,1.04,-0.7,-0.7,4.48
-0.04,0.09,1.05,-0.56,-0.28,4.9
-0.04,0.1,1.04,-0.07,-0.21,5.25
-0.04,0.09,1.04,-0.21,-0.14,5.46
-0.04,0.1,1.04,-0.21,-0.14,5.32
-0.04,0.1,1.04,-0.14,-0.21,5.6
-0.04,0.09,1.04,0,-0.35,5.74
-0.04,0.09,1.04,0,-0.35,6.3
-0.04,0.09,1.04,-0.21,-0.63,6.44
-0.04,0.09,1.04,0.35,-0.77,6.79
-0.04,0.09,1.04,0.56,-0.35,7.07
-0.04,0.09,1.03,0.35,-0.14,8.05
-0.05,0.09,1.02,0,-1.05,8.68
-0.05,0.09,1.03,0,-1.75,8.33
-0.05,0.09,1.03,-0.07,-1.68,8.61
-0.05,0.09,1.03,-0.42,-1.54,9.59
-0.05,0.09,1.03,-1.61,-1.82,10.01
-0.05,0.09,1.04,-1.4,-1.47,9.94
-0.05,0.09,1.04,-0.7,-0.35,9.87
-0.05,0.09,1.04,-0.07,0,10.78
-0.06,0.09,1.04,-0.28,-0.35,11.34
-0.06,0.09,1.04,-0.21,-1.05,12.32
-0.06,0.09,1.04,-0.07,-1.05,13.09
-0.06,0.09,1.04,-0.07,-1.4,13.09
-0.05,0.09,1.04,0.28,-1.54,12.88
-0.04,0.09,1.04,0.49,-1.12,13.3
-0.05,0.09,1.03,-0.28,-0.98,13.93
-0.05,0.08,1.04,0.07,-0.91,13.72
-0.04,0.08,1.04,1.19,-0.49,12.81
-0.05,0.08,1.04,1.89,-0.07,13.3
-0.05,0.08,1.03,1.33,-0.42,13.79
-0.05,0.08,1.03,0.98,-0.91,14.42
-0.04,0.08,1.03,0.7,-0.98,14.28
-0.04,0.07,1.04,1.26,-0.7,13.79
-0.04,0.08,1.05,2.52,0.49,13.79
-0.05,0.09,1.04,1.4,0.42,12.81
-0.05,0.06,1.04,1.61,-0.42,14.49
-0.04,0.08,1.03,1.54,-0.7,15.05
-0.04,0.09,1.03,0.84,-0.84,14.56
-0.04,0.05,1.04,0.77,-1.12,14.42
-0.03,0.1,1.04,1.19,-0.49,13.09
-0.04,0.08,1.04,1.33,-0.28,11.97
-0.03,0.07,1.04,1.61,0.63,13.3
-0.04,0.08,1.04,1.54,0.98,13.65
-0.04,0.08,1.04,1.54,0.49,13.58
-0.04,0.07,1.04,2.1,-0.14,13.44
-0.05,0.08,1.04,2.24,-1.4,13.37
-0.04,0.08,1.04,1.96,-2.03,13.51
-0.04,0.08,1.04,2.17,-2.38,13.58
-0.03,0.08,1.04,2.87,-1.82,12.6
-0.03,0.08,1.04,3.5,-0.28,12.25
-0.03,0.08,1.03,3.29,0.14,11.97
-0.03,0.08,1.03,3.15,0.63,10.99
-0.04,0.08,1.02,3.29,0.49,10.64
-0.04,0.09,1.02,3.36,0.07,10.43
-0.04,0.09,1.02,2.73,-0.35,9.66
-0.05,0.09,1.02,2.03,-0.84,9.31
-0.05,0.09,1.02,1.89,-1.05,9.31
-0.06,0.09,1.03,2.17,-0.91,9.66
-0.06,0.09,1.03,1.75,0,9.66
-0.06,0.1,1.03,0.91,0.49,9.17
-0.07,0.1,1.04,0.77,0.35,8.82
-0.07,0.09,1.04,1.61,0.49,9.24
-0.07,0.1,1.04,2.31,0.28,10.01
-0.07,0.1,1.04,2.66,-0.28,10.22
-0.07,0.1,1.04,2.87,-0.56,10.01
-0.07,0.1,1.04,3.22,-0.63,10.5
-0.07,0.11,1.03,3.99,-0.7,11.55
-0.06,0.11,1.03,4.48,-0.84,12.11
-0.06,0.12,1.02,4.27,-1.26,12.04
-0.06,0.11,1.02,4.06,-1.61,11.69
-0.06,0.12,1.03,3.78,-1.82,11.55
-0.06,0.11,1.03,3.85,-2.03,11.76
-0.05,0.11,1.04,3.43,-1.82,11.83
-0.05,0.11,1.05,3.71,-1.68,11.2
-0.05,0.11,1.05,4.34,-1.26,10.71
-0.05,0.11,1.05,4.62,-1.05,10.22
-0.06,0.11,1.05,4.97,-0.49,10.08
-0.06,0.11,1.04,5.32,-0.84,10.15
-0.06,0.11,1.05,5.11,-1.26,10.15
-0.06,0.11,1.04,4.9,-1.54,10.43
-0.06,0.11,1.04,4.9,-1.61,10.57
-0.06,0.11,1.04,4.76,-1.4,10.22
-0.06,0.11,1.04,4.83,-1.26,10.64
-0.05,0.11,1.04,5.46,-1.26,10.92
-0.06,0.11,1.03,5.81,-1.4,10.85
-0.06,0.12,1.02,5.53,-1.47,11.06
-0.06,0.12,1.02,5.04,-1.68,10.92
-0.06,0.11,1.02,3.78,-2.17,10.64
-0.07,0.11,1.03,4.62,-2.45,10.64
-0.07,0.11,1.02,5.25,-2.03,11.97
-0.07,0.12,1.01,4.62,-1.47,12.88
-0.07,0.12,1,3.01,-0.56,12.39
-0.07,0.12,1,2.24,-0.63,12.53
-0.08,0.12,1.01,1.4,-1.05,12.53
-0.08,0.12,1.01,1.26,-1.47,12.95
-0.08,0.12,1.02,0.07,-1.54,13.3
-0.08,0.11,1.02,-0.63,-2.1,13.72
-0.08,0.11,1.03,-0.49,-2.52,13.72
-0.07,0.11,1.04,0.63,-1.68,14.07
-0.07,0.11,1.04,0.84,-0.91,14.49
-0.07,0.11,1.04,1.33,-0.63,14.91
-0.07,0.11,1.04,1.26,-0.21,14.84
-0.07,0.11,1.03,0.98,-0.07,14.84
-0.06,0.11,1.03,0.63,0.07,14.84
-0.06,0.11,1.03,0.21,-0.28,14.28
-0.06,0.11,1.02,0.14,-0.49,13.65
-0.05,0.12,1.03,-0.49,0,12.53
-0.05,0.11,1.03,-0.77,0.49,12.32
-0.06,0.11,1.04,-0.98,0.63,12.18
-0.06,0.11,1.04,-0.63,0.84,12.46
-0.06,0.11,1.04,-0.35,1.26,12.74
-0.06,0.11,1.04,-0.49,1.12,12.32
-0.06,0.11,1.03,-0.7,0.35,12.18
-0.06,0.1,1.04,-0.42,-0.77,11.48
-0.06,0.11,1.04,-0.07,-0.77,11.27
-0.05,0.12,1.04,-0.77,0.28,10.08
-0.05,0.12,1.03,-1.96,1.4,9.38
-0.06,0.11,1.03,-3.5,1.61,8.89
-0.06,0.11,1.04,-4.34,1.4,8.68
-0.06,0.11,1.04,-3.57,1.47,8.26
-0.06,0.1,1.03,-2.52,1.61,7.91
-0.07,0.11,1.02,-2.73,0.77,7.49
-0.06,0.11,1.02,-3.71,0.21,6.86
-0.07,0.11,1.03,-4.62,0.14,6.51
-0.06,0.1,1.04,-4.9,0.77,6.51
-0.07,0.1,1.05,-5.53,0.7,5.88
-0.07,0.1,1.05,-5.95,0.35,5.04
-0.07,0.08,1.08,-5.81,1.75,5.95
-0.08,0.08,1.05,-3.22,2.94,7.21
-0.08,0.1,1.03,-3.57,1.12,5.04
-0.07,0.09,1.04,-2.52,0.98,6.65
-0.08,0.06,1.02,-0.07,1.05,7.14
-0.07,0.09,1.03,0.28,-0.84,7.35
-0.08,0.1,1.01,0.56,-2.45,7.14
-0.07,0.09,1.02,0.14,-3.64,6.37
-0.06,0.09,1.02,-0.42,-3.22,5.74
-0.06,0.09,1.02,-1.26,-3.5,5.32
-0.06,0.09,1.02,-1.68,-4.97,3.99
-0.05,0.09,1.04,-2.03,-5.18,2.38
-0.05,0.07,1.04,-1.26,-3.5,1.68
-0.06,0.08,1.04,-0.63,-2.31,1.47
-0.05,0.08,1.04,-0.56,-1.68,0.56
-0.05,0.07,1.04,-0.7,-1.4,0.07
-0.05,0.07,1.04,0.14,-1.54,-0.42
-0.05,0.08,1.04,0.91,-2.24,-1.33
-0.05,0.08,1.03,1.12,-3.43,-2.17
-0.04,0.09,1.03,0.77,-4.41,-2.73
-0.04,0.09,1.02,0.42,-4.62,-4.13
-0.02,0.1,1.02,-0.28,-3.57,-6.16
-0.02,0.1,1.02,-0.56,-2.66,-7.77
-0.03,0.1,1.01,-0.91,-1.96,-9.94
-0.03,0.11,1.01,-1.89,-1.68,-12.6
-0.05,0.11,1.01,-3.29,-1.75,-14.14
-0.06,0.11,1.02,-3.78,-1.47,-15.05
-0.07,0.11,1.03,-4.2,-1.19,-15.54
-0.08,0.11,1.04,-5.25,-0.77,-16.17
-0.09,0.11,1.05,-6.3,-0.14,-16.03
-0.1,0.1,1.06,-6.23,-1.4,-15.89
-0.1,0.08,1.07,-4.48,-2.87,-15.4
-0.09,0.08,1.08,-2.1,-4.06,-14.84
-0.09,0.08,1.07,0.42,-4.76,-14.07
-0.09,0.09,1.05,1.82,-5.46,-13.93
-0.09,0.09,1.05,2.1,-5.11,-13.72
-0.08,0.1,1.04,0.98,-4.13,-14.28
-0.08,0.1,1.02,-1.54,-4.48,-15.82
-0.09,0.09,1.02,-3.64,-6.3,-16.73
-0.08,0.08,1.03,-4.27,-7.49,-16.52
-0.08,0.08,1.03,-3.92,-7.49,-16.38
-0.09,0.07,1.04,-3.22,-7.63,-16.66
-0.08,0.07,1.05,-2.17,-6.72,-16.52
-0.07,0.06,1.06,-0.07,-4.34,-16.03
-0.07,0.07,1.05,0.42,-2.1,-15.89
-0.07,0.08,1.04,0.21,-0.63,-16.45
-0.07,0.08,1.03,-0.56,-1.12,-17.29
-0.06,0.08,1.03,-1.05,-2.1,-18.06
-0.06,0.08,1.04,-0.56,-2.45,-18.13
-0.06,0.08,1.03,0.42,-2.59,-17.71
-0.06,0.09,1.03,0.91,-2.45,-18.83
-0.05,0.09,1.03,0.63,-1.54,-20.44
-0.05,0.1,1.02,-1.19,-0.35,-21.84
-0.06,0.09,1.02,-1.89,-0.07,-23.31
-0.07,0.09,1.02,-2.94,-0.49,-23.59
-0.08,0.08,1.03,-2.17,-1.54,-22.89
-0.08,0.08,1.04,-1.05,-1.54,-22.4
-0.08,0.09,1.04,-1.19,-0.63,-22.33
-0.09,0.08,1.04,-1.05,-1.68,-22.33
-0.08,0.08,1.05,-0.7,-1.61,-22.75
-0.08,0.09,1.05,-1.75,-1.75,-23.73
-0.09,0.07,1.05,-2.45,-3.15,-24.15
-0.08,0.06,1.06,-0.63,-3.64,-23.1
-0.07,0.07,1.05,1.12,-3.85,-22.75
-0.07,0.07,1.06,1.96,-2.94,-22.05
-0.08,0.07,1.05,2.24,-1.47,-21.7
-0.09,0.07,1.06,3.64,-1.54,-21.14
-0.09,0.07,1.06,4.76,-1.75,-20.58
-0.1,0.08,1.06,4.9,-2.45,-20.23
-0.1,0.07,1.06,5.88,-3.78,-19.25
-0.1,0.07,1.06,7.07,-4.55,-17.71
-0.1,0.07,1.05,7.42,-4.97,-16.59
-0.1,0.07,1.04,8.26,-5.32,-15.89
-0.09,0.07,1.03,9.17,-5.6,-15.12
-0.09,0.07,1.02,10.08,-5.46,-14.56
-0.08,0.07,1.01,11.13,-5.18,-14
-0.08,0.08,0.99,10.85,-4.2,-14.56
-0.08,0.08,0.97,8.54,-3.78,-15.05
-0.08,0.08,0.97,6.65,-3.64,-14.49
-0.09,0.08,0.97,4.76,-3.29,-14.28
-0.09,0.08,0.98,3.08,-2.38,-14.84
-0.09,0.1,0.99,0.49,-0.21,-16.24
-0.1,0.09,0.98,-1.54,0.21,-16.66
-0.11,0.08,0.99,-3.85,-0.56,-15.75
-0.12,0.08,1.01,-4.76,-1.4,-14
-0.11,0.07,1.04,-4.34,-1.82,-11.55
-0.11,0.07,1.05,-3.71,-3.08,-10.15
-0.11,0.07,1.06,-1.75,-4.76,-9.52
-0.09,0.08,1.07,-0.28,-4.27,-9.66
-0.08,0.08,1.06,0.7,-2.73,-10.22
-0.08,0.08,1.05,1.68,-1.96,-9.52
-0.08,0.09,1.04,2.87,-1.68,-8.61
-0.07,0.09,1.03,3.08,-1.68,-7.77
-0.07,0.1,1.03,2.59,-1.89,-7.91
-0.07,0.1,1.02,1.26,-2.38,-8.82
-0.07,0.1,1.03,0.35,-3.29,-9.8
-0.06,0.09,1.04,0.28,-3.29,-10.85
-0.06,0.08,1.04,0.91,-2.87,-10.71
-0.06,0.08,1.05,1.47,-2.66,-10.99
-0.06,0.08,1.05,1.89,-1.96,-11.48
-0.06,0.08,1.04,1.54,-1.47,-11.76
-0.07,0.08,1.04,0.56,-1.75,-12.32
-0.07,0.07,1.04,0.56,-2.59,-12.11
-0.07,0.07,1.04,0.63,-3.08,-11.55
-0.06,0.07,1.05,0.35,-2.73,-11.76
-0.06,0.07,1.04,0.63,-2.45,-12.53
-0.06,0.07,1.03,0.56,-2.73,-13.02
-0.06,0.07,1.03,0.56,-2.73,-12.32
-0.06,0.07,1.02,0.49,-3.29,-12.11
-0.06,0.07,1.01,-0.07,-3.57,-11.83
-0.06,0.08,1.02,-0.91,-3.92,-12.6
-0.07,0.07,1.02,-1.54,-4.62,-12.81
-0.07,0.08,1.02,-1.82,-4.97,-13.16
-0.07,0.08,1.02,-2.24,-4.9,-13.09
-0.07,0.07,1.03,-3.01,-5.18,-12.53
-0.07,0.07,1.03,-3.22,-5.74,-12.46
-0.07,0.07,1.04,-3.08,-6.16,-11.97
-0.07,0.07,1.05,-2.52,-6.3,-11.83
-0.07,0.07,1.05,-1.61,-5.67,-12.32
-0.06,0.07,1.05,-0.98,-4.9,-12.88
-0.07,0.07,1.05,-1.12,-4.62,-13.37
-0.07,0.06,1.04,-0.77,-4.69,-13.02
-0.07,0.07,1.03,-0.21,-5.11,-12.18
-0.07,0.07,1.03,0.21,-5.46,-12.04
-0.07,0.08,1.02,-0.28,-5.81,-12.53
-0.07,0.08,1.03,-0.63,-5.67,-12.88
-0.07,0.07,1.03,-1.19,-5.18,-12.95
-0.08,0.07,1.03,-0.98,-4.69,-12.32
-0.08,0.07,1.03,-1.4,-4.97,-12.32
-0.07,0.06,1.04,-0.77,-4.9,-11.97
-0.07,0.06,1.05,0.56,-4.48,-12.04
-0.07,0.06,1.04,1.33,-4.69,-12.46
-0.06,0.06,1.03,2.03,-4.83,-12.39
-0.05,0.06,1.03,2.59,-4.48,-12.18
-0.05,0.06,1.02,2.66,-3.92,-12.25
-0.05,0.06,1.02,2.31,-3.22,-13.44
-0.05,0.06,1.01,1.19,-2.45,-15.19
-0.05,0.06,1.01,0,-2.1,-15.89
-0.06,0.05,1.01,-0.91,-2.1,-15.82
-0.06,0.05,1.01,-1.33,-1.96,-15.61
-0.06,0.04,1.02,-1.96,-2.03,-15.33
-0.07,0.05,1.03,-2.17,-1.96,-15.33
-0.07,0.04,1.03,-1.82,-2.24,-15.54
-0.07,0.05,1.03,-1.47,-2.17,-14.98
-0.07,0.05,1.04,-1.68,-2.66,-14.21
-0.06,0.05,1.04,-2.31,-3.01,-14
-0.06,0.06,1.05,-2.73,-3.43,-14.42
-0.04,0.05,1.06,-2.1,-3.78,-14.77
-0.04,0.05,1.06,-1.4,-3.92,-14.91
-0.03,0.05,1.06,-0.49,-4.48,-15.4
-0.03,0.06,1.06,0.28,-5.11,-16.1
-0.02,0.06,1.06,0.98,-5.67,-17.01
-0.01,0.06,1.06,1.68,-5.46,-19.46
-0.02,0.06,1.06,2.38,-5.11,-21
-0.03,0.06,1.05,3.08,-5.18,-22.4
-0.04,0.06,1.04,3.43,-5.25,-23.38
-0.05,0.06,1.04,3.64,-5.11,-23.94
-0.06,0.05,1.03,3.78,-4.55,-24.64
-0.06,0.05,1.02,3.01,-4.06,-25.27
-0.07,0.05,1.02,2.52,-3.36,-26.04
-0.08,0.04,1.01,2.24,-2.94,-25.83
-0.1,0.04,1.01,1.54,-3.15,-24.92
-0.1,0.04,1.01,0.77,-3.78,-24.43
-0.1,0.03,1.01,0.14,-4.27,-23.73
-0.1,0.03,1.02,-0.35,-4.62,-23.52
-0.1,0.03,1.02,-1.12,-4.9,-22.82
-0.09,0.03,1.03,-1.47,-5.04,-22.12
-0.08,0.03,1.05,-2.17,-3.85,-21.7
-0.08,0.03,1.05,-2.8,-2.66,-22.26
-0.07,0.02,1.06,-2.45,-2.1,-22.4
-0.07,0.03,1.04,-3.5,-2.38,-22.12
-0.06,0.03,1.07,-1.19,-3.5,-21.77
-0.05,0.03,1.04,-2.38,-3.71,-22.61
-0.05,0.04,1.04,-2.38,-4.06,-22.47
-0.04,0.04,1.02,-4.48,-3.08,-22.19
-0.05,0.05,1.02,-3.85,-3.99,-21.84
-0.04,0.06,1.01,-5.25,-3.78,-21.98
-0.04,0.04,1.01,-5.95,-3.92,-21.98
-0.05,0.05,1.01,-5.95,-3.71,-22.47
-0.06,0.06,1.01,-6.51,-3.99,-22.05
-0.06,0.05,1.01,-7,-5.04,-21
-0.06,0.05,1.03,-7.77,-5.81,-20.09
-0.06,0.05,1.03,-8.26,-6.44,-19.46
-0.06,0.04,1.03,-7.49,-7.21,-18.55
-0.06,0.04,1.03,-7.07,-7.63,-16.8
-0.06,0.05,1.04,-7.49,-7.07,-16.03
-0.06,0.05,1.04,-8.05,-6.23,-15.61
-0.06,0.06,1.04,-8.96,-5.95,-15.47
-0.07,0.06,1.05,-9.17,-5.95,-14.84
-0.07,0.06,1.06,-10.15,-6.51,-14.14
-0.07,0.06,1.07,-10.92,-7.07,-13.58
-0.08,0.05,1.08,-10.85,-7.56,-11.97
-0.07,0.04,1.1,-9.38,-7.91,-10.57
-0.07,0.05,1.1,-7.91,-8.47,-9.94
-0.07,0.04,1.11,-5.04,-8.19,-9.03
-0.05,0.05,1.1,-3.22,-7.28,-7.77
-0.05,0.05,1.1,-1.68,-6.58,-7.28
-0.04,0.05,1.08,-0.21,-5.95,-6.93
-0.04,0.05,1.07,-0.07,-6.3,-6.72
-0.02,0.05,1.07,0.91,-5.81,-7.07
-0.02,0.05,1.05,0.84,-6.09,-7.7
-0.02,0.04,1.04,1.12,-6.16,-7.35
-0.02,0.04,1.03,1.12,-6.51,-6.16
-0.02,0.05,1.02,-17.71,-7.91,-6.79
-0.02,0.02,1.03,1.33,-7.84,-6.86
-0.01,0.05,1.02,-0.42,-7.28,-7.07
-0.03,0.04,1.01,-1.89,-7.77,-7
-0.04,0.06,0.99,-4.41,-9.31,-6.86
-0.05,0.04,1.01,-5.53,-10.29,-7.28
-0.04,0.01,1.03,-4.34,-9.24,-5.32
-0.06,0.02,1.03,-3.99,-10.15,-3.71
-0.06,0.02,1.04,-3.57,-12.18,-2.8
-0.05,0,1.05,-2.94,-13.51,-1.61
-0.04,0,1.06,-1.47,-12.88,-0.35
-0.04,0,1.06,0.07,-11.55,0.35
-0.03,0,1.05,0.84,-10.36,0.7
-0.03,0,1.04,1.61,-9.1,1.89
-0.03,0,1.03,2.17,-6.79,3.57
-0.03,0,1.02,2.03,-5.46,4.76
-0.03,0.01,1,0.49,-4.97,5.11
-0.03,0.01,1,-1.05,-4.83,5.18
-0.03,0,1.01,-2.1,-4.76,5.11
-0.03,0,1.01,-2.87,-5.04,4.69
-0.03,-0.01,1.01,-3.43,-5.46,5.11
-0.02,-0.01,1.02,-4.06,-4.76,6.09
-0.03,-0.01,1.02,-3.85,-4.48,6.86
-0.02,-0.01,1.02,-3.78,-3.78,7.49
-0.02,-0.01,1.02,-3.43,-3.36,8.33
-0.01,-0.01,1.02,-3.15,-3.29,8.89
0,-0.01,1.02,-3.15,-3.01,9.17
0.01,0,1.01,-3.71,-2.8,9.59
0.01,0,1.01,-4.06,-2.31,9.31
0.02,0.01,1.01,-4.06,-2.59,9.17
0.02,0.01,1.01,-5.11,-2.66,9.38
0.02,0.02,1.02,-6.65,-2.24,8.47
0.03,0.01,1.03,-7.56,-1.75,7.35
0.02,0.01,1.05,-7.42,-0.91,6.37
0.02,0.01,1.07,-6.86,-0.07,6.37
0.01,0.01,1.08,-6.65,0.21,6.58
0,0,1.09,-5.18,0.49,7.49
0,-0.01,1.09,-3.08,0,9.52
0,0,1.1,-2.87,0.28,10.5
0.01,-0.01,1.11,-2.31,0.7,10.99
0.01,-0.02,1.11,-1.12,0.49,11.69
0.01,-0.03,1.11,1.68,-0.35,13.23
0.02,-0.02,1.1,5.53,-0.77,14.21
0.03,-0.01,1.08,9.1,-0.63,14.91
0.04,0,1.05,10.36,-0.28,15.26
0.04,0.02,1.03,10.29,1.26,15.05
0.04,0.02,1.01,9.87,1.68,15.47
0.03,0.03,0.99,9.1,0.7,15.47
0.03,0.04,0.98,8.26,0.35,15.19
0.02,0.04,0.98,7.07,0.56,15.68
0.01,0.04,0.97,5.39,0.35,16.59
0.01,0.04,0.98,3.78,0.77,17.36
-0.01,0.03,0.98,2.24,0.98,17.99
-0.02,0.02,1,1.19,0.56,18.83
-0.03,0.01,1.02,1.05,0.28,20.65
-0.04,0,1.04,0.56,-0.07,22.54
-0.05,-0.01,1.05,0.42,-1.26,24.64
-0.05,-0.01,1.07,1.4,-2.45,26.46
-0.04,-0.02,1.08,2.03,-3.01,28.35
-0.04,-0.03,1.09,3.08,-3.43,29.19
-0.03,-0.02,1.09,4.48,-3.15,30.59
-0.02,-0.03,1.1,5.6,-3.08,31.15
0,-0.03,1.1,6.86,-2.8,31.15
0.01,-0.03,1.1,7.7,-2.59,30.03
0.02,-0.03,1.09,8.89,-2.73,28.91
0.02,-0.04,1.09,9.52,-2.73,27.44
0.03,-0.04,1.09,10.5,-2.59,26.18
0.03,-0.04,1.08,11.69,-2.24,23.87
0.04,-0.04,1.07,12.74,-1.54,22.05
0.04,-0.03,1.05,14.21,-0.63,20.23
0.03,-0.03,1.03,14.84,0.35,18.34
0.02,-0.02,1.01,14.91,0.35,16.87
0.02,-0.01,1,13.86,0.7,14.91
0.01,-0.01,0.99,12.81,1.4,12.39
0,-0.01,0.98,11.06,1.61,11.69
-0.01,-0.01,0.98,10.36,1.12,11.2
-0.02,-0.01,0.98,9.38,1.26,10.15
-0.02,-0.02,0.99,7.91,1.68,9.38
-0.02,-0.02,1.01,6.93,2.31,8.12
-0.02,-0.03,1.02,7.49,3.15,7.35
-0.03,-0.02,1.03,7.56,3.92,7.42
-0.04,-0.02,1.03,7.28,4.2,7.07
-0.04,-0.02,1.03,7.07,4.06,7.35
-0.04,-0.02,1.03,7.21,3.78,7.7
-0.05,-0.01,1.02,6.72,3.5,7.7
-0.05,0,1.02,6.58,3.71,7.7
-0.05,0.01,1.01,5.67,4.41,7.49
-0.05,0.01,1.01,4.2,5.11,7.98
-0.06,0.02,1,3.71,5.46,8.61
-0.07,0.03,1,3.01,5.18,9.38
-0.07,0.03,1,1.75,4.62,9.87
-0.08,0.04,1,0.35,3.64,10.43
-0.08,0.04,1.01,-0.14,2.31,11.62
-0.08,0.04,1.02,-0.91,1.61,12.11
-0.08,0.04,1.03,-0.84,1.54,12.32
-0.07,0.04,1.05,-1.26,2.31,12.18
-0.08,0.04,1.05,-1.61,3.22,12.18
-0.08,0.03,1.07,0.56,3.43,12.95
-0.08,0.04,1.07,1.68,3.78,14
-0.08,0.04,1.07,3.22,3.29,14.49
-0.08,0.04,1.07,4.06,3.5,14.63
-0.08,0.05,1.07,4.83,3.36,14.84
-0.07,0.05,1.06,5.95,3.08,14.49
-0.07,0.05,1.05,7.42,2.87,14.35
-0.06,0.06,1.05,7.84,3.29,14.07
-0.06,0.07,1.05,6.93,3.43,12.81
-0.06,0.07,1.05,6.51,3.29,12.04
-0.06,0.07,1.06,6.65,2.73,11.27
-0.06,0.07,1.06,7.14,2.31,10.36
-0.06,0.07,1.07,7.21,2.1,9.17
-0.06,0.06,1.08,7.35,2.1,8.68
-0.06,0.06,1.08,8.47,1.68,8.54
-0.06,0.06,1.08,11.06,1.33,8.19
-0.05,0.07,1.07,12.39,1.68,7.21
-0.05,0.08,1.05,13.58,1.96,7.07
-0.06,0.08,1.04,14.56,1.54,6.86
-0.06,0.09,1.02,14.63,0.77,6.23
-0.05,0.1,1.01,14.14,1.05,4.97
-0.06,0.1,1.01,12.74,1.96,3.5
-0.06,0.11,1.01,11.9,1.82,3.22
-0.07,0.11,1,11.76,1.75,3.08
-0.07,0.11,1,10.78,2.17,2.66
-0.07,0.11,1,9.03,2.87,1.61
-0.08,0.11,1.01,7.7,3.36,1.26
-0.1,0.1,1.01,7.14,2.87,1.82
-0.12,0.09,1.01,7.28,0.91,2.8
-0.13,0.09,1.02,7.84,-0.35,3.85
-0.13,0.09,1.02,7.35,-1.54,5.18
-0.14,0.09,1.02,6.65,-2.66,7
-0.14,0.09,1.02,5.25,-2.8,8.33
-0.14,0.08,1.03,4.62,-3.71,9.73
-0.14,0.08,1.05,4.48,-3.85,10.64
-0.14,0.07,1.06,5.18,-4.13,12.18
-0.14,0.06,1.06,5.81,-4.27,13.09
-0.13,0.06,1.07,6.65,-4.62,13.79
-0.13,0.06,1.07,7.42,-4.83,14.14
-0.12,0.07,1.06,8.47,-4.41,14.35
-0.11,0.07,1.06,9.24,-3.36,14.07
-0.11,0.07,1.04,9.73,-2.38,14.56
-0.11,0.08,1.02,10.01,-2.24,14.56
-0.1,0.08,1,9.66,-2.45,14.42
-0.1,0.08,0.98,8.54,-2.66,13.86
-0.09,0.08,0.97,6.86,-2.38,12.88
-0.09,0.08,0.96,5.25,-1.61,12.32
-0.08,0.08,0.95,4.2,-0.84,11.41
-0.09,0.08,0.95,2.52,0.14,10.71
-0.09,0.08,0.95,0.14,1.4,9.87
-0.09,0.08,0.95,-1.61,2.1,9.45
-0.1,0.09,0.95,-3.64,1.89,9.31
-0.09,0.09,0.96,-6.02,2.03,8.82
-0.1,0.09,0.97,-8.12,1.4,7.91
-0.1,0.09,0.98,-9.87,0.77,7.21
-0.1,0.09,1,-11.55,0.49,6.44
-0.09,0.09,1.02,-13.16,0.77,5.95
-0.09,0.09,1.04,-13.23,1.54,5.18
-0.09,0.09,1.05,-12.88,2.8,4.9
-0.1,0.09,1.06,-11.83,3.85,4.55
-0.1,0.1,1.06,-10.92,4.97,4.13
-0.1,0.11,1.06,-10.85,5.74,3.43
-0.11,0.1,1.05,-10.85,5.39,3.57
-0.12,0.11,1.05,-10.99,4.9,3.85
-0.13,0.11,1.05,-10.57,4.48,4.48
-0.14,0.1,1.05,-10.57,3.57,5.6
-0.14,0.1,1.05,-10.78,2.38,6.58
-0.14,0.1,1.06,-11.06,1.89,7.21
-0.14,0.09,1.07,-11.83,2.17,8.12
-0.14,0.08,1.07,-11.62,1.26,9.31
-0.13,0.08,1.08,-10.64,-0.07,10.57
-0.12,0.08,1.08,-9.8,-0.91,10.85
-0.11,0.07,1.08,-8.33,-1.47,11.34
-0.1,0.07,1.08,-7.35,-1.61,10.85
-0.1,0.07,1.08,-6.44,-2.38,10.57
-0.1,0.06,1.08,-5.25,-2.94,9.94
-0.09,0.06,1.08,-3.78,-2.24,9.66
-0.09,0.07,1.06,-2.17,-2.31,9.8
-0.09,0.07,1.04,-1.75,-2.87,9.66
-0.08,0.08,1.03,-1.61,-3.29,9.17
-0.08,0.08,1.02,-2.03,-2.94,8.33
-0.08,0.08,1.02,-2.24,-2.45,7.7
-0.09,0.07,1.01,-2.17,-2.52,6.86
-0.09,0.07,1.01,-2.24,-3.01,6.02
-0.09,0.07,1.01,-2.17,-3.43,5.46
-0.1,0.06,1.01,-2.03,-3.64,5.32
-0.1,0.06,1.02,-1.89,-3.71,5.11
-0.1,0.06,1.02,-1.47,-3.29,4.76
-0.1,0.06,1.02,-1.68,-3.22,4.13
-0.11,0.05,1.02,-2.45,-3.08,4.13
-0.11,0.05,1.03,-2.59,-2.94,3.85
-0.11,0.04,1.04,-2.1,-2.87,3.71
-0.11,0.04,1.04,-1.54,-2.59,3.71
-0.1,0.05,1.04,-2.03,-2.1,3.43
-0.1,0.04,1.04,-1.75,-1.33,3.15
-0.11,0.04,1.04,-1.61,-0.56,2.94
-0.11,0.05,1.04,-1.47,-0.14,3.22
-0.11,0.05,1.04,-1.4,0.14,3.22
-0.11,0.05,1.04,-1.05,0.07,3.15
-0.11,0.05,1.03,-1.19,0.21,3.71
-0.11,0.06,1.02,-1.96,0.14,3.78
-0.1,0.06,1.03,-2.87,0.42,3.92
-0.1,0.06,1.03,-4.27,1.26,3.57
-0.1,0.06,1.04,-4.9,1.33,3.22
-0.1,0.05,1.05,-3.92,0.91,3.36
-0.1,0.05,1.05,-1.89,0.77,4.06
-0.1,0.06,1.05,-0.84,1.05,4.76
-0.09,0.06,1.04,-0.49,1.68,5.32
-0.1,0.07,1.03,-1.12,1.54,5.74
-0.09,0.07,1.02,-1.75,0.91,5.74
-0.1,0.07,1.02,-2.24,-0.35,5.81
-0.09,0.07,1.03,-2.52,-1.54,5.95
-0.09,0.07,1.03,-3.08,-2.31,6.16
-0.09,0.07,1.05,-2.94,-2.1,5.18
-0.08,0.06,1.06,-2.52,-1.19,5.25
-0.09,0.06,1.06,-1.82,-1.19,5.18
-0.1,0.05,1.07,-0.63,-2.1,5.67
-0.09,0.05,1.08,1.12,-3.01,6.09
-0.09,0.05,1.08,2.8,-3.85,6.09
-0.08,0.05,1.08,4.34,-4.2,6.09
-0.08,0.05,1.07,5.04,-4.27,5.81
-0.07,0.04,1.06,6.65,-5.04,6.02
-0.07,0.04,1.05,8.89,-5.32,5.32
-0.06,0.05,1.04,9.52,-4.27,4.55
-0.06,0.05,1.02,9.24,-3.36,2.73
-0.07,0.05,1.01,8.61,-2.73,1.61
-0.08,0.06,1,7.28,-2.94,0.7
-0.08,0.05,1,5.53,-3.08,0.21
-0.09,0.05,1,4.34,-3.57,-0.14
-0.09,0.05,1,3.57,-3.78,0
-0.09,0.04,1.02,3.01,-2.87,0.07
-0.1,0.04,1.01,2.8,-2.59,0.77
-0.11,0.04,1.01,2.8,-3.01,0.63
-0.11,0.04,1.02,3.64,-3.29,0.49
-0.1,0.04,1.02,4.48,-3.36,0.77
-0.11,0.04,1.02,4.48,-3.29,1.4
-0.11,0.05,1.02,3.99,-3.08,1.75
-0.11,0.05,1.02,3.36,-3.01,1.96
-0.1,0.05,1.02,2.66,-1.96,1.89
-0.1,0.05,1.03,1.82,-0.77,1.82
-0.11,0.05,1.02,1.19,-0.56,1.96
-0.12,0.05,1.02,1.33,-1.54,2.73
-0.11,0.06,1.02,1.47,-2.03,3.08
-0.11,0.06,1.03,1.12,-2.1,3.5
-0.11,0.06,1.03,0.91,-2.03,3.99
-0.11,0.06,1.03,0.56,-2.45,4.41
-0.1,0.06,1.03,0.42,-2.45,4.41
-0.1,0.06,1.03,-0.56,-1.61,4.34
-0.1,0.06,1.04,-0.84,-1.33,4.41
-0.09,0.06,1.04,-1.12,-1.33,3.99
-0.1,0.06,1.05,-0.98,-1.4,3.36
-0.1,0.06,1.06,-0.91,-1.75,3.43
-0.09,0.06,1.07,-0.28,-1.54,3.36
-0.09,0.05,1.07,0.42,-1.47,3.29
-0.09,0.05,1.07,1.68,-1.54,3.71
-0.09,0.06,1.06,2.38,-2.31,4.2
-0.09,0.06,1.06,2.66,-2.24,3.78
-0.08,0.07,1.05,2.1,-2.03,3.36
-0.08,0.06,1.05,1.82,-2.38,3.36
-0.08,0.06,1.05,1.89,-3.15,2.94
-0.07,0.06,1.05,2.31,-3.29,2.03
-0.07,0.05,1.05,2.59,-3.01,1.05
-0.08,0.05,1.05,2.87,-2.87,0.91
-0.08,0.05,1.05,3.43,-3.57,0.49
-0.08,0.05,1.05,4.34,-3.71,-0.07
-0.08,0.05,1.04,5.04,-3.57,-0.14
-0.08,0.05,1.03,4.55,-3.85,-0.28
-0.09,0.05,1.03,4.13,-4.48,-0.56
-0.09,0.05,1.03,3.92,-4.41,-0.7
-0.09,0.05,1.03,3.15,-4.27,-0.84
-0.09,0.05,1.02,2.38,-4.48,-1.19
-0.1,0.05,1.02,2.03,-4.97,-1.96
-0.09,0.05,1.03,2.03,-4.9,-2.66
-0.1,0.05,1.03,1.96,-4.76,-2.38
-0.11,0.05,1.03,1.26,-5.04,-2.17
-0.1,0.05,1.04,0.7,-5.39,-2.45
-0.1,0.05,1.04,1.19,-5.25,-2.59
-0.11,0.05,1.04,1.68,-5.25,-2.24
-0.1,0.05,1.04,1.75,-5.18,-2.38
-0.1,0.06,1.04,0.98,-3.85,-3.29
-0.1,0.06,1.04,0.56,-2.8,-3.85
-0.1,0.05,1.03,0.35,-2.8,-3.64
-0.11,0.05,1.02,0.98,-3.36,-3.36
-0.1,0.06,1.02,1.12,-3.78,-3.57
-0.1,0.07,1.01,0.42,-3.08,-3.64
-0.1,0.07,1.01,-0.56,-2.73,-3.64
-0.11,0.07,1.01,-2.31,-3.01,-3.5
-0.11,0.07,1.02,-3.22,-3.15,-3.57
-0.11,0.07,1.04,-4.27,-2.66,-4.06
-0.11,0.06,1.05,-4.34,-2.1,-4.34
-0.12,0.06,1.06,-3.99,-2.24,-3.85
-0.13,0.06,1.07,-3.5,-3.71,-2.52
-0.12,0.06,1.08,-2.1,-4.48,-1.75
-0.11,0.06,1.08,0,-4.06,-1.26
-0.11,0.06,1.08,1.89,-4.06,-0.84
-0.11,0.07,1.06,2.66,-4.48,0.35
-0.1,0.07,1.06,2.73,-4.9,0.84
-0.09,0.08,1.05,2.38,-4.97,0.7
-0.09,0.08,1.04,2.31,-5.67,0.84
-0.09,0.08,1.03,1.47,-7.56,0.28
-0.08,0.08,1.04,1.19,-8.4,-0.7
-0.07,0.07,1.05,1.26,-7.98,-1.61
-0.07,0.07,1.06,1.82,-6.72,-3.43
-0.08,0.06,1.06,2.87,-6.16,-3.64
-0.08,0.06,1.06,4.69,-6.51,-3.85
-0.08,0.06,1.05,5.88,-6.93,-4.13
-0.07,0.07,1.05,5.53,-7.07,-4.9
-0.08,0.07,1.05,5.39,-7.42,-5.74
-0.08,0.06,1.04,5.81,-8.05,-6.58
-0.08,0.06,1.04,5.88,-8.19,-7.21
-0.08,0.06,1.04,5.95,-7.7,-7.07
-0.08,0.06,1.04,6.02,-7.14,-7.28
-0.08,0.06,1.04,6.44,-6.93,-8.26
-0.07,0.06,1.04,6.79,-6.3,-8.61
-0.08,0.06,1.03,7,-6.51,-8.26
-0.09,0.06,1.02,7.14,-7.42,-8.05
-0.08,0.06,1.02,7.07,-8.26,-8.33
-0.07,0.06,1.02,6.65,-7.84,-8.96
-0.07,0.07,1.02,5.81,-6.93,-9.94
-0.08,0.06,1.02,5.46,-6.37,-10.5
-0.09,0.06,1.02,5.25,-6.02,-9.52
-0.09,0.06,1.02,4.69,-6.23,-8.75
-0.09,0.06,1.01,4.34,-6.65,-8.12
-0.1,0.06,1.01,4.06,-7.56,-7.56
-0.09,0.06,1.01,3.99,-8.12,-7.35
-0.09,0.06,1.02,3.57,-7.42,-7.35
-0.09,0.06,1.02,3.5,-6.16,-7.63
-0.09,0.06,1.01,3.22,-5.18,-6.72
-0.1,0.07,1.01,2.59,-5.46,-5.6
-0.1,0.07,1.01,2.03,-5.81,-4.55
-0.09,0.07,1,1.05,-5.6,-4.13
-0.1,0.07,1,-0.21,-5.6,-3.78
-0.1,0.07,1.01,-0.91,-5.81,-2.94
-0.09,0.07,1.01,-1.12,-5.88,-1.89
-0.09,0.07,1.02,-0.98,-5.6,-0.91
-0.09,0.07,1.02,-0.98,-5.11,-0.77
-0.09,0.07,1.02,-1.05,-4.55,0.35
-0.09,0.08,1.02,-1.19,-4.62,1.05
-0.08,0.08,1.02,-1.82,-4.41,1.61
-0.08,0.08,1.02,-1.68,-4.34,2.31
-0.08,0.08,1.02,-1.89,-4.55,3.22
-0.08,0.08,1.02,-1.82,-4.9,3.78
-0.07,0.08,1.03,-1.68,-5.18,4.06
-0.07,0.08,1.03,-1.54,-4.76,4.62
-0.07,0.09,1.02,-1.61,-3.99,4.69
-0.07,0.09,1.02,-3.08,-3.71,4.76
-0.06,0.08,1.04,-3.78,-3.43,4.9
-0.07,0.08,1.05,-3.43,-2.87,5.53
-0.07,0.07,1.07,-2.24,-2.59,5.74
-0.06,0.07,1.07,-1.26,-2.17,5.95
-0.07,0.07,1.07,-0.35,-1.61,6.79
-0.06,0.08,1.06,0.91,0.07,8.05
-0.06,0.07,1.05,1.12,-0.28,8.61
-0.06,0.08,1.04,1.61,-1.96,8.68
-0.05,0.07,1.04,2.66,-2.94,9.31
-0.05,0.07,1.03,3.01,-2.94,9.87
-0.04,0.07,1.03,2.94,-2.94,10.36
-0.04,0.07,1.03,2.24,-2.59,9.94
-0.04,0.06,1.03,2.03,-3.29,9.87
-0.03,0.05,1.03,2.45,-3.43,9.94
-0.03,0.05,1.03,3.08,-4.13,9.94
-0.03,0.05,1.03,3.43,-4.76,9.94
-0.02,0.05,1.02,3.5,-5.39,9.66
-0.02,0.05,1.02,3.43,-6.02,8.96
-0.02,0.05,1.03,3.5,-6.09,7.42
-0.01,0.04,1.03,3.99,-5.25,6.79
-0.01,0.04,1.03,4.69,-5.11,5.74
-0.01,0.04,1.03,4.83,-4.48,4.13
-0.01,0.04,1.03,4.48,-3.64,3.22
-0.02,0.04,1.03,3.99,-3.36,2.45
-0.02,0.04,1.03,4.27,-3.5,1.54
-0.02,0.04,1.03,3.78,-3.15,0.14
-0.02,0.04,1.03,3.22,-3.01,-0.91
-0.02,0.04,1.03,1.75,-3.08,-1.89
-0.03,0.03,1.05,2.17,-3.15,-2.8
-0.02,0.04,1.04,1.75,-2.73,-4.13
-0.03,0.03,1.05,1.4,-1.82,-4.97
-0.03,0.03,1.06,1.61,-0.98,-5.67
-0.03,0.03,1.06,2.38,-0.63,-6.44
-0.04,0.03,1.05,2.73,-0.63,-6.58
-0.04,0.03,1.05,2.66,-0.98,-6.58
-0.04,0.04,1.04,2.38,-1.54,-7
-0.03,0.03,1.04,2.17,-2.17,-7.14
-0.03,0.03,1.04,1.75,-2.52,-7.56
-0.03,0.04,1.03,1.54,-3.15,-8.05
-0.03,0.03,1.03,1.33,-3.43,-8.54
-0.02,0.04,1.03,1.47,-3.43,-8.96
-0.02,0.04,1.03,1.4,-3.01,-10.08
-0.02,0.04,1.03,1.12,-2.38,-10.99
-0.03,0.04,1.02,0.84,-2.24,-11.34
-0.04,0.05,1.02,-0.14,-2.52,-11.41
-0.04,0.05,1.02,-0.56,-3.08,-11.2
-0.05,0.05,1.02,-1.05,-3.71,-11.2
-0.05,0.06,1.01,-1.47,-4.06,-11.34
-0.06,0.06,1.01,-2.73,-4.55,-11.13
-0.06,0.06,1.02,-3.36,-4.76,-10.85
-0.07,0.06,1.02,-3.29,-4.55,-11.13
-0.07,0.07,1.02,-3.78,-4.13,-10.43
-0.08,0.07,1.03,-4.34,-3.92,-10.08
-0.09,0.07,1.03,-4.41,-4.48,-8.96
-0.09,0.07,1.03,-4.13,-4.76,-8.19
-0.09,0.08,1.04,-3.78,-4.9,-7
-0.09,0.08,1.04,-3.57,-3.99,-6.23
-0.08,0.08,1.03,-3.22,-2.38,-5.25
-0.08,0.09,1.03,-3.29,-1.12,-4.76
-0.09,0.09,1.03,-3.43,-0.91,-4.13
-0.09,0.09,1.03,-3.78,-0.98,-3.57
-0.09,0.09,1.03,-3.57,-0.77,-2.66
-0.09,0.1,1.03,-3.29,-1.19,-1.54
-0.09,0.1,1.03,-3.78,-1.19,-0.42
-0.09,0.11,1.03,-4.9,-0.63,0.14
-0.09,0.11,1.04,-5.46,0.28,1.26
-0.09,0.11,1.05,-4.76,0.98,2.24
-0.1,0.11,1.06,-3.29,1.61,3.78
-0.1,0.11,1.06,-2.94,3.78,5.6
-0.11,0.12,1.05,-3.99,3.64,7.7
-0.12,0.09,1.05,-2.31,2.38,9.66
-0.12,0.13,1.07,-2.45,1.4,12.53
-0.12,0.11,1.05,-2.24,0.07,15.19
-0.13,0.1,1.06,-0.63,-1.4,18.27
-0.12,0.11,1.06,-1.89,-1.19,20.79
-0.13,0.1,1.06,0.49,-1.96,24.36
-0.12,0.1,1.07,0.42,-0.84,26.25
-0.12,0.09,1.06,1.82,-0.98,28.07
-0.12,0.09,1.05,2.38,-1.47,30.31
-0.12,0.08,1.04,3.01,-2.66,32.9
-0.12,0.08,1.04,3.01,-3.15,34.93
-0.11,0.08,1.03,2.73,-3.08,37.45
-0.12,0.08,1.04,2.45,-3.22,39.62
-0.11,0.07,1.03,2.45,-3.22,40.67
-0.1,0.07,1.03,2.03,-2.31,41.09
-0.1,0.06,1.02,1.96,-1.75,42.63
-0.1,0.06,1.02,1.54,-1.96,43.61
-0.09,0.06,1.02,0.84,-2.24,44.73
-0.09,0.06,1.01,-0.21,-2.45,45.57
-0.08,0.07,1.02,-0.84,-2.45,45.92
-0.08,0.06,1.01,-1.96,-1.96,46.62
-0.08,0.06,1.02,-2.66,-1.47,47.11
-0.07,0.06,1.02,-3.22,-0.7,46.97
-0.07,0.06,1.03,-3.78,0,47.18
-0.07,0.05,1.03,-3.78,0.63,47.81
-0.07,0.05,1.03,-3.36,0.98,48.3
-0.06,0.05,1.04,-3.71,0.98,48.58
-0.07,0.05,1.04,-4.2,0.98,49.14
-0.06,0.05,1.04,-4.2,1.19,48.93
-0.06,0.04,1.05,-3.43,1.33,49.07
-0.05,0.04,1.05,-2.24,1.68,48.65
-0.02,0.03,1.03,-1.89,0.7,4.62
-0.02,0.03,1.03,-1.89,1.4,5.04
-0.02,0.04,1.03,-1.68,1.05,6.51
-0.03,0.04,1.03,-2.1,0.91,7.07
-0.02,0.04,1.04,-2.45,1.19,7.21
-0.02,0.04,1.04,-2.17,1.4,8.26
-0.03,0.04,1.05,-1.68,0.98,9.17
-0.03,0.03,1.05,-0.77,0.42,10.08
-0.02,0.03,1.05,0.42,0.63,11.13
-0.02,0.03,1.05,1.19,1.12,11.97
-0.02,0.03,1.05,1.68,1.61,12.39
-0.02,0.02,1.05,2.17,2.03,12.6
-0.02,0.02,1.04,2.8,2.17,13.3
-0.02,0.02,1.04,3.36,2.38,13.51
-0.02,0.02,1.04,4.06,2.17,14
-0.02,0.02,1.03,4.62,2.1,13.93
-0.01,0.02,1.02,4.69,2.8,13.44
0,0.02,1.02,4.2,3.99,12.81
-0.01,0.02,1.02,3.99,4.62,12.67
-0.01,0.02,1.02,3.5,4.76,12.74
-0.01,0.02,1.02,3.08,4.9,12.67
-0.02,0.02,1.03,2.31,5.18,12.18
-0.02,0.02,1.03,2.1,5.39,11.9
-0.02,0.02,1.04,2.31,5.46,12.04
-0.02,0.01,1.05,3.08,5.81,12.32
-0.02,0.02,1.05,4.2,6.51,12.53
-0.03,0.02,1.04,5.04,7.28,12.95
-0.02,0.03,1.04,5.81,8.47,12.67
-0.03,0.03,1.02,5.6,9.45,12.81
-0.04,0.04,1.01,5.04,9.59,13.79
-0.05,0.05,1,3.15,9.38,14.98
-0.06,0.05,1,1.75,8.47,16.03
-0.06,0.05,1.01,-0.21,7.84,16.8
-0.06,0.04,1.02,-1.75,7.35,18.27
-0.07,0.05,1.03,-1.96,6.72,20.02
-0.08,0.05,1.04,-2.17,5.81,21.63
-0.08,0.04,1.05,-1.47,5.6,23.52
-0.08,0.06,1.05,-1.96,5.53,25.76
-0.09,0.02,1.05,0.98,4.48,27.79
-0.09,0.06,1.05,0.21,4.76,29.61
-0.09,0.04,1.04,0.77,4.48,31.71
-0.09,0.05,1.04,0.56,5.11,33.18
-0.1,0.06,1.03,-0.84,5.04,35
-0.11,0.04,1.03,0.49,4.13,37.24
-0.1,0.05,1.03,0.07,3.71,39.48
-0.1,0.04,1.03,-17.85,2.52,41.37
-0.1,0.05,1.03,-0.35,2.31,42.28
-0.09,0.04,1.04,-0.63,1.89,42.98
-0.09,0.03,1.05,0.07,1.96,43.4
-0.08,0.03,1.05,0.77,2.17,44.1
-0.08,0.03,1.05,1.68,2.59,44.8
-0.07,0.03,1.05,2.03,2.87,45.64
-0.08,0.03,1.05,2.1,3.43,45.5
-0.07,0.03,1.05,1.96,3.43,45.5
-0.07,0.02,1.05,2.17,3.29,45.92
-0.07,0.03,1.05,2.38,2.94,45.85
-0.06,0.03,1.04,2.52,2.59,45.22
-0.06,0.03,1.04,2.94,2.66,45.08
-0.06,0.03,1.04,2.94,3.01,44.31
-0.06,0.03,1.04,2.73,3.08,43.89
-0.06,0.03,1.03,2.66,2.59,43.61
-0.06,0.03,1.04,2.87,2.31,43.33
-0.06,0.03,1.04,2.31,1.82,42.7
-0.07,0.03,1.05,1.96,1.33,42
-0.07,0.03,1.05,2.24,0.7,41.93
-0.07,0.02,1.05,2.52,0.21,41.79
-0.07,0.03,1.05,2.52,0.35,41.37
-0.07,0.02,1.05,2.87,0.56,41.37
-0.08,0.02,1.05,3.15,0.56,40.81
-0.07,0.03,1.05,3.78,0.63,40.32
-0.08,0.03,1.04,4.2,0.07,40.32
-0.08,0.03,1.03,4.34,-0.63,40.18
-0.08,0.03,1.03,3.78,-1.54,39.97
-0.08,0.03,1.03,3.01,-2.52,39.62
-0.08,0.03,1.03,3.08,-3.36,39.41
-0.07,0.03,1.04,2.73,-3.15,38.5
-0.08,0.02,1.04,2.94,-3.01,38.29
-0.08,0.03,1.04,3.57,-3.01,38.22
-0.07,0.03,1.04,3.92,-2.94,37.52
-0.08,0.03,1.04,4.34,-2.66,36.54
-0.07,0.03,1.03,4.34,-2.52,36.05
-0.08,0.03,1.02,4.27,-2.52,34.86
-0.08,0.03,1.01,4.48,-2.59,34.3
-0.08,0.03,1.01,4.06,-2.38,33.81
-0.08,0.04,1,2.87,-2.17,32.83
-0.08,0.03,1.01,1.4,-2.24,32.06
-0.08,0.03,1.01,0.35,-2.24,30.8
-0.09,0.03,1.03,-0.35,-1.47,29.61
-0.09,0.02,1.03,-0.28,-1.26,28.84
-0.1,0.02,1.04,-0.49,-1.05,28.56
-0.1,0.01,1.04,-0.84,-0.84,28.35
-0.1,0.01,1.05,-0.28,-0.77,28.35
-0.1,0.01,1.06,0.63,-0.98,28.63
-0.11,0.01,1.05,2.17,-1.68,28.49
-0.1,0.01,1.04,2.59,-2.66,28.35
-0.09,0.02,1.04,0.91,-1.75,27.16
-0.09,0.02,1.04,-0.84,-0.42,25.62
-0.09,0,1.05,-1.82,-0.07,25.06
-0.09,0,1.06,-1.26,0.14,24.85
-0.08,0,1.06,-0.21,0.28,24.29
-0.07,0,1.06,0.56,0.49,23.03
-0.07,0.01,1.04,0.84,0.56,21.98
-0.07,0.02,1.03,0.42,1.05,20.44
-0.06,0.03,1.03,0.07,1.96,19.53
-0.06,0.03,1.02,-0.84,2.45,18.27
-0.06,0.03,1.02,-1.68,2.59,17.36
-0.07,0.03,1.02,-2.1,2.45,16.17
-0.07,0.03,1.02,-2.24,1.75,15.47
-0.07,0.03,1.03,-2.24,0.84,14.7
-0.06,0.03,1.04,-1.54,0.28,12.81
-0.06,0.03,1.04,-0.98,0.42,11.69
-0.07,0.04,1.04,-1.05,0.63,10.99
-0.06,0.04,1.04,-0.77,1.54,10.36
-0.06,0.03,1.04,-0.07,2.31,8.82
-0.06,0.03,1.04,1.19,2.73,7.07
-0.07,0.04,1.03,2.52,2.94,6.09
-0.07,0.04,1.02,2.59,2.59,5.6
-0.08,0.04,1.01,1.47,1.54,5.04
-0.08,0.04,1,0.42,0.7,4.13
-0.07,0.04,1.01,-0.14,1.05,3.22
-0.07,0.04,1.01,-0.56,1.75,1.75
-0.08,0.03,1,-0.91,2.38,0.7
-0.08,0.03,1,-0.98,2.87,-0.14
-0.08,0.04,1,-1.33,3.08,-0.42
-0.09,0.04,1,-2.03,2.59,-0.49
-0.09,0.04,1,-3.64,2.1,-1.26
-0.09,0.04,1.02,-4.76,1.82,-2.31
-0.09,0.04,1.03,-5.46,1.82,-3.15
-0.1,0.03,1.04,-5.46,2.17,-3.43
-0.11,0.03,1.05,-5.18,2.94,-3.64
-0.11,0.03,1.06,-4.48,3.92,-3.08
-0.12,0.03,1.06,-3.29,4.06,-2.59
-0.12,0.03,1.06,-2.31,3.43,-2.03
-0.11,0.04,1.06,-1.33,3.15,-2.24
-0.12,0.04,1.05,-0.63,3.22,-2.24
-0.12,0.05,1.04,-0.91,3.15,-2.03
-0.12,0.05,1.03,-1.61,2.45,-0.91
-0.12,0.05,1.04,-1.89,1.47,-0.7
-0.1,0.05,1.05,-1.26,1.61,-1.33
-0.11,0.05,1.05,-0.91,2.1,-1.61
-0.11,0.05,1.05,-0.84,1.61,-1.4
-0.11,0.05,1.05,-0.98,1.26,-1.75
-0.11,0.05,1.06,-0.42,0.63,-1.75
-0.1,0.05,1.06,-0.07,0.14,-1.68
-0.1,0.05,1.06,0.28,-0.56,-1.96
-0.1,0.05,1.06,1.26,-0.98,-2.38
-0.1,0.05,1.06,1.96,-1.19,-2.73
-0.1,0.05,1.06,1.89,-1.26,-3.15
-0.1,0.05,1.06,2.1,-1.4,-3.85
-0.11,0.05,1.06,3.43,-2.1,-3.99
-0.1,0.05,1.06,3.99,-1.96,-4.55
-0.1,0.05,1.05,4.76,-1.82,-5.11
-0.1,0.05,1.05,5.18,-2.17,-5.39
-0.11,0.05,1.04,5.46,-2.66,-5.67
-0.11,0.05,1.04,5.6,-2.66,-6.02
-0.11,0.06,1.03,5.53,-3.22,-5.88
-0.11,0.05,1.03,5.04,-3.85,-6.37
-0.12,0.06,1.03,4.76,-3.85,-6.79
-0.12,0.05,1.04,4.69,-3.64,-7
-0.12,0.05,1.03,4.83,-3.36,-6.79
-0.13,0.04,1.04,4.34,-3.29,-6.37
-0.13,0.05,1.05,3.78,-2.94,-6.37
-0.13,0.04,1.05,3.92,-2.94,-6.23
-0.13,0.03,1.05,5.04,-3.15,-5.53
-0.13,0.03,1.05,6.02,-3.5,-4.41
-0.13,0.02,1.03,7.42,-3.64,-3.64
-0.13,0.02,1.02,7.91,-3.85,-2.66
-0.12,0.02,1,8.4,-3.99,-1.54
-0.11,0.03,0.99,8.4,-3.78,-1.47
-0.1,0.03,0.97,7.21,-3.43,-1.82
-0.1,0.04,0.97,5.46,-3.01,-3.29
-0.1,0.04,0.96,2.73,-2.66,-3.92
-0.1,0.04,0.97,0.42,-2.66,-4.48
-0.11,0.04,0.98,-1.82,-2.73,-5.04
-0.11,0.03,1,-3.36,-2.59,-5.46
-0.11,0.03,1.01,-4.55,-2.03,-6.09
-0.11,0.03,1.03,-5.04,-1.82,-5.95
-0.12,0.02,1.04,-4.97,-2.1,-5.81
-0.13,0.03,1.05,-4.48,-2.66,-5.32
-0.13,0.03,1.06,-4.13,-3.08,-4.69
-0.13,0.04,1.05,-4.06,-3.57,-4.27
-0.12,0.05,1.06,-3.71,-4.34,-4.06
-0.12,0.05,1.06,-3.57,-4.55,-4.2
-0.11,0.05,1.06,-3.01,-4.9,-3.85
-0.11,0.05,1.06,-2.24,-5.39,-3.85
-0.11,0.06,1.06,-0.77,-6.02,-4.06
-0.1,0.07,1.05,-0.7,-6.23,-4.9
-0.1,0.08,1.06,-0.77,-6.23,-6.16
-0.1,0.07,1.06,-0.21,-7.07,-6.79
-0.1,0.08,1.06,0.56,-7.77,-7.42
-0.09,0.08,1.07,0.77,-8.19,-8.54
-0.09,0.08,1.07,1.75,-8.12,-9.31
-0.09,0.08,1.07,3.71,-7.98,-10.36
-0.09,0.08,1.06,5.04,-8.19,-10.78
-0.09,0.08,1.05,6.3,-8.47,-11.55
-0.09,0.08,1.04,7.35,-9.17,-13.02
-0.08,0.09,1.03,8.61,-8.89,-14.63
-0.08,0.09,1.02,8.61,-8.26,-15.75
-0.08,0.09,1.01,7.84,-8.33,-17.5
-0.09,0.09,1.01,6.93,-8.96,-19.32
-0.09,0.09,1.02,6.23,-8.75,-20.93
-0.1,0.09,1.03,5.11,-8.33,-23.03
-0.1,0.08,1.04,4.41,-7.28,-24.57
-0.12,0.07,1.06,3.5,-6.79,-25.2
-0.13,0.07,1.08,3.36,-6.51,-25.41
-0.13,0.05,1.09,4.55,-5.88,-25.41
-0.13,0.05,1.09,7.07,-3.99,-25.69
-0.14,0.05,1.08,8.61,-2.24,-25.97
-0.15,0.05,1.06,9.03,-1.61,-24.99
-0.16,0.06,1.04,8.68,-1.96,-23.87
-0.15,0.06,1.02,7.91,-2.38,-22.4
-0.15,0.06,1.01,7.28,-2.66,-21.49
-0.15,0.06,1,6.44,-2.8,-20.51
-0.16,0.06,0.99,5.11,-3.29,-19.53
-0.15,0.06,0.99,3.78,-3.5,-18.62
-0.15,0.06,1,2.52,-4.06,-16.8
-0.15,0.05,1,1.68,-5.25,-15.12
-0.15,0.04,1.01,0.49,-6.16,-13.65
-0.14,0.04,1.02,0.07,-6.93,-12.32
-0.13,0.04,1.02,0.07,-7.56,-11.27
-0.12,0.04,1.03,0,-7.7,-10.64
-0.11,0.04,1.03,-0.14,-7.14,-10.85
-0.1,0.04,1.02,-0.84,-6.37,-10.71
-0.1,0.04,1.02,-1.54,-6.3,-10.78
-0.1,0.04,1.02,-2.52,-6.3,-10.99
-0.1,0.04,1.03,-3.08,-6.51,-11.13
-0.09,0.03,1.04,-3.29,-6.86,-11.34
-0.09,0.03,1.04,-3.43,-7.84,-11.48
-0.09,0.03,1.04,-3.08,-8.68,-11.27
-0.08,0.03,1.04,-3.57,-8.61,-11.76
-0.07,0.03,1.05,-4.13,-7,-13.37
-0.07,0.02,1.05,-3.85,-5.6,-15.05
-0.07,0.02,1.05,-3.78,-4.69,-15.47
-0.08,0.02,1.05,-3.85,-4.69,-15.4
-0.08,0.02,1.05,-3.85,-4.83,-15.68
-0.07,0.02,1.05,-3.57,-5.04,-15.89
-0.07,0.02,1.04,-3.57,-4.76,-16.31
-0.07,0.03,1.04,-4.34,-4.41,-16.66
-0.07,0.03,1.03,-5.53,-4.48,-16.66
-0.07,0.03,1.03,-6.02,-4.76,-16.66
-0.07,0.02,1.03,-5.46,-4.97,-17.01
-0.07,0.02,1.03,-5.53,-4.41,-16.52
-0.08,0.02,1.02,-6.3,-4.48,-15.89
-0.08,0.02,1.02,-6.09,-5.11,-14.98
-0.07,0.02,1.03,-6.23,-5.39,-14.56
-0.06,0.02,1.02,-5.6,-5.74,-14.07
-0.06,0.02,1.02,-5.32,-6.02,-13.23
-0.06,0.02,1.02,-5.67,-6.72,-12.53
-0.05,0.02,1.02,-6.09,-7.77,-12.11
-0.04,0.02,1.02,-7.49,-7.98,-11.9
-0.04,0.02,1.03,-8.26,-8.26,-11.83
-0.04,0.02,1.04,-7.84,-8.89,-11.62
-0.04,0.02,1.04,-7.77,-8.82,-11.55
-0.03,0.01,1.05,-7.42,-8.61,-11.55
-0.03,0.01,1.06,-6.86,-8.61,-11.48
-0.04,0.01,1.06,-5.88,-8.89,-11.55
-0.04,0.01,1.06,-4.48,-9.38,-11.69
-0.03,0.01,1.05,-3.57,-9.94,-10.85
-0.03,0.01,1.05,-2.66,-10.43,-11.41
-0.02,0.01,1.05,-2.17,-9.8,-11.55
-0.02,0.01,1.04,-2.03,-9.38,-11.9
-0.02,0.02,1.04,-2.24,-9.03,-11.9
-0.02,0.01,1.04,-2.38,-9.03,-12.11
-0.02,0.01,1.04,-1.82,-8.96,-12.32
-0.02,0.01,1.04,-1.26,-8.89,-12.74
-0.02,0.01,1.04,-1.19,-8.26,-13.37
-0.02,0.01,1.04,-1.12,-8.05,-13.58
-0.02,0,1.04,-0.21,-7.63,-13.93
-0.02,0,1.04,0.7,-6.93,-13.72
-0.03,0,1.04,1.4,-6.23,-14
-0.03,0.01,1.04,2.17,-6.02,-14.14
-0.03,0.01,1.03,2.66,-6.02,-13.79
-0.03,0.01,1.02,2.31,-5.88,-13.44
-0.03,0.01,1.02,1.96,-5.67,-13.3
-0.03,0.01,1.03,1.89,-5.25,-13.65
-0.03,0.01,1.03,1.75,-4.55,-13.44
-0.03,0.01,1.02,1.68,-4.48,-12.81
-0.03,0.01,1.03,1.54,-4.55,-12.88
-0.03,0.01,1.03,1.47,-4.69,-12.6
-0.03,0.01,1.04,1.19,-4.62,-12.18
-0.03,0.01,1.04,1.54,-4.76,-11.83
-0.03,0,1.05,2.31,-4.69,-11.83
-0.03,0.01,1.05,2.87,-4.55,-11.76
-0.03,0.01,1.05,3.57,-4.41,-11.41
-0.03,0.01,1.05,4.34,-4.48,-10.78
-0.03,0.01,1.05,4.62,-5.18,-10.99
-0.02,0.02,1.04,5.53,-5.88,-10.5
-0.02,0.01,1.04,4.83,-7.28,-10.64
-0.01,0.02,1.05,4.2,-5.81,-11.41
-0.01,0,1.05,5.46,-5.39,-11.34
-0.01,0.01,1.05,6.44,-4.69,-11.2
-0.01,0.01,1.05,6.86,-4.41,-11.27
-0.01,0,1.05,7.49,-4.34,-11.34
-0.01,0.01,1.04,8.19,-4.41,-11.27
-0.01,0.01,1.03,7.91,-5.32,-11.27
-0.01,0.01,1.03,7,-5.6,-11.48
-0.01,0.01,1.03,6.51,-5.53,-12.18
-0.01,0.01,1.03,6.51,-4.97,-12.53
-0.02,0.01,1.03,6.51,-4.62,-12.25
-0.02,0.01,1.02,6.16,-4.76,-11.76
-0.02,0.01,1.02,5.46,-4.69,-11.76
-0.02,0.01,1.02,5.25,-4.62,-12.11
-0.02,0.01,1.03,4.9,-4.2,-11.83
-0.03,0.01,1.02,4.34,-4.48,-11.13
-0.03,0.01,1.03,3.85,-5.18,-10.15
-0.03,0.01,1.03,4.13,-4.9,-10.29
-0.02,0.01,1.03,4.41,-3.57,-10.57
-0.03,0.01,1.02,4.34,-2.94,-9.59
-0.03,0.02,1.01,3.36,-3.57,-8.4
-0.03,0.02,1.01,1.54,-4.06,-7.91
-0.02,0.02,1.02,0.49,-4.27,-7.91
-0.02,0.02,1.03,0,-3.43,-8.61
-0.02,0.02,1.03,-0.49,-3.15,-8.54
-0.03,0.01,1.03,-0.7,-3.29,-8.05
-0.03,0.02,1.04,-0.84,-3.71,-6.58
-0.02,0.02,1.04,-1.47,-3.92,-6.09
-0.02,0.02,1.05,-2.31,-3.57,-5.53
-0.02,0.01,1.06,-1.61,-3.57,-6.58
-0.01,0.02,1.07,-0.28,-2.59,-7.07
-0.01,0.02,1.06,1.75,-2.73,-6.3
-0.02,0.03,1.05,2.31,-3.36,-5.18
-0.01,0.03,1.04,2.1,-3.99,-4.34
-0.01,0.04,1.04,1.26,-4.55,-4.48
0,0.04,1.04,0.56,-4.69,-5.11
0,0.04,1.04,0.21,-4.76,-5.88
0.12,0.03,1.04,1.12,-4.69,-6.3
0,0.03,1.04,1.19,-4.69,-6.3
-0.01,0.03,1.04,0.84,-4.76,-6.02
-0.01,0.02,1.05,0.91,-5.04,-5.88
-0.01,0.02,1.06,0.98,-4.41,-6.93
-0.01,0.02,1.06,2.45,-3.36,-7.63
-0.02,0.01,1.05,3.71,-2.94,-6.86
-0.03,0.02,1.04,4.27,-3.43,-6.02
-0.03,0.02,1.03,4.13,-4.34,-5.32
-0.02,0.02,1.02,3.71,-5.04,-4.34
-0.02,0.03,1.01,2.38,-5.6,-3.92
-0.02,0.03,1.02,1.12,-5.32,-4.41
-0.01,0.02,1.02,0.7,-4.13,-4.76
-0.02,0.02,1.02,0.56,-3.57,-4.34
-0.03,0.02,1.03,0.56,-3.99,-3.29
-0.02,0.02,1.03,0.77,-4.69,-2.73
-0.02,0.02,1.04,0.91,-4.41,-3.29
-0.02,0.02,1.04,1.68,-3.85,-3.15
-0.02,0.02,1.04,2.24,-3.36,-3.08
-0.02,0.03,1.04,1.89,-2.66,-2.52
-0.02,0.03,1.04,1.61,-2.66,-2.03
-0.02,0.03,1.04,1.47,-3.15,-1.68
-0.01,0.03,1.04,1.4,-3.5,-1.05
-0.01,0.03,1.05,1.61,-3.43,-1.68
-0.01,0.02,1.06,2.66,-2.94,-2.66
-0.01,0.02,1.05,3.78,-2.8,-2.1
-0.01,0.02,1.05,4.41,-2.73,-1.05
0,0.02,1.04,4.9,-2.31,-0.84
0,0.02,1.03,5.04,-1.4,-1.19
0,0.03,1.02,4.76,-1.05,-1.75
-0.01,0.03,1.02,3.64,-1.33,-2.03
-0.01,0.03,1.01,2.17,-1.61,-1.47
-0.01,0.03,1.02,1.33,-1.89,-1.47
-0.01,0.02,1.02,0.91,-2.03,-1.47
-0.01,0.02,1.03,0.84,-2.17,-1.47
-0.01,0.03,1.03,0.63,-2.03,-0.84
-0.01,0.03,1.04,0.42,-1.89,-1.26
0,0.03,1.05,0.84,-1.19,-1.96
-0.01,0.03,1.05,1.12,-0.91,-1.19
-0.01,0.03,1.04,1.33,-1.82,-0.21
-0.01,0.03,1.05,0.98,-2.59,0.14
0,0.03,1.06,1.47,-2.17,0.14
0,0.03,1.06,2.17,-2.17,0.42
-0.01,0.04,1.06,3.29,-2.31,0.42
-0.01,0.04,1.06,3.78,-2.17,0.63
-0.01,0.04,1.05,3.99,-2.03,0.91
-0.01,0.04,1.05,3.57,-1.82,0.49
-0.02,0.03,1.05,3.99,-2.38,1.19
-0.02,0.03,1.04,4.06,-3.01,1.89
-0.02,0.03,1.05,4.41,-3.78,2.03
-0.01,0.03,1.05,5.18,-3.15,2.03
-0.01,0.03,1.04,5.25,-2.45,1.82
-0.01,0.03,1.03,5.39,-1.96,2.31
-0.02,0.03,1.03,4.83,-1.82,2.17
-0.02,0.03,1.03,3.85,-1.26,2.1
-0.02,0.03,1.02,2.73,-1.12,1.75
-0.02,0.04,1.03,3.08,-2.59,2.87
-0.02,0.02,1.03,2.59,-2.31,3.01
-0.02,0.03,1.04,3.01,-2.31,2.8
-0.01,0.03,1.04,3.22,-1.61,2.87
-0.02,0.03,1.04,3.85,-1.75,3.22
-0.01,0.03,1.04,4.83,-1.96,3.22
-0.01,0.04,1.03,4.69,-1.75,3.08
-0.01,0.04,1.03,4.41,-1.68,3.29
-0.01,0.04,1.03,3.36,-2.17,3.36
-0.01,0.04,1.04,3.08,-2.8,3.08
-0.01,0.04,1.05,3.57,-3.08,3.01
0,0.03,1.05,3.99,-2.66,2.52
0,0.04,1.05,4.06,-2.03,2.31
0,0.03,1.05,4.55,-1.96,2.17
0,0.04,1.05,4.76,-1.68,1.75
-0.01,0.04,1.05,4.69,-1.61,1.47
-0.01,0.04,1.05,5.18,-2.03,1.75
-0.01,0.04,1.04,5.81,-2.66,2.17
-0.01,0.04,1.04,5.81,-3.22,1.75
-0.01,0.04,1.03,4.9,-3.43,1.54
0,0.04,1.03,4.41,-3.64,1.33
0,0.04,1.04,4.55,-3.78,0.49
0,0.04,1.04,4.55,-2.87,0.07
0,0.04,1.03,4.2,-2.52,-0.07
0,0.04,1.04,4.13,-1.96,-0.77
-0.01,0.04,1.04,4.48,-2.03,-0.63
-0.01,0.03,1.04,5.25,-2.31,-0.84
-0.01,0.04,1.03,5.04,-2.45,-0.7
-0.01,0.04,1.02,4.83,-3.01,-0.63
-0.01,0.05,1.02,4.06,-3.22,-0.7
-0.01,0.05,1.02,2.94,-3.29,-0.91
-0.01,0.05,1.03,2.31,-3.01,-1.4
-0.01,0.05,1.03,1.96,-2.59,-1.26
-0.02,0.05,1.04,2.1,-2.73,-1.54
-0.01,0.05,1.04,2.1,-2.38,-1.96
-0.02,0.04,1.04,2.31,-2.24,-2.1
-0.02,0.05,1.04,2.52,-2.31,-1.89
-0.02,0.04,1.04,2.45,-2.31,-1.89
-0.02,0.04,1.05,3.08,-2.45,-1.89
-0.02,0.05,1.04,3.78,-2.1,-2.52
-0.02,0.05,1.04,4.48,-1.96,-2.45
-0.02,0.05,1.02,4.27,-2.1,-2.38
-0.01,0.05,1.02,3.71,-1.96,-2.66
-0.01,0.06,1.02,2.87,-1.19,-3.5
-0.02,0.05,1.02,2.03,-1.33,-3.57
-0.02,0.05,1.02,1.96,-1.61,-3.78
-0.02,0.05,1.02,1.89,-1.47,-4.2
-0.02,0.05,1.02,1.19,-1.54,-4.13
-0.02,0.05,1.03,0.63,-1.96,-4.34
-0.02,0.05,1.04,1.19,-1.82,-4.9
-0.02,0.05,1.04,1.54,-0.91,-5.04
-0.02,0.05,1.04,1.47,-0.49,-5.04
-0.03,0.05,1.04,1.4,-0.42,-5.11
-0.03,0.05,1.04,1.68,-0.42,-5.18
-0.02,0.05,1.04,1.96,-0.35,-5.04
-0.03,0.06,1.03,1.68,-0.77,-5.04
-0.03,0.06,1.04,1.47,-1.33,-5.74
-0.02,0.06,1.03,1.61,-1.4,-5.18
-0.03,0.06,1.03,1.26,-1.19,-4.76
-0.02,0.06,1.04,1.12,-1.05,-4.69
-0.02,0.06,1.04,1.19,-0.98,-4.76
-0.02,0.07,1.04,1.26,-1.05,-4.41
-0.02,0.07,1.03,0.77,-1.12,-4.55
-0.02,0.07,1.04,0.21,-1.54,-4.83
-0.02,0.07,1.04,-0.21,-1.33,-5.11
-0.02,0.07,1.05,-0.84,-1.19,-5.18
-0.03,0.07,1.06,-0.91,-1.61,-4.83
-0.03,0.06,1.07,-0.14,-2.52,-4.2
-0.02,0.06,1.07,1.47,-2.8,-3.64
-0.02,0.06,1.07,2.1,-3.01,-3.36
-0.02,0.06,1.06,3.15,-3.29,-3.36
-0.02,0.06,1.06,3.71,-3.43,-2.94
-0.02,0.07,1.05,4.55,-3.43,-2.73
-0.02,0.07,1.03,4.55,-3.57,-2.73
-0.02,0.07,1.02,4.41,-3.71,-2.45
-0.02,0.08,1.02,2.87,-3.5,-2.8
-0.03,0.08,1.02,1.12,-3.43,-3.08
-0.03,0.07,1.03,0.56,-3.64,-3.01
-0.03,0.06,1.04,0.63,-4.2,-2.8
-0.03,0.06,1.05,1.19,-4.48,-2.66
-0.03,0.05,1.05,1.82,-4.41,-2.31
-0.03,0.05,1.05,2.73,-4.27,-2.17
-0.02,0.06,1.05,3.99,-3.5,-1.89
-0.02,0.06,1.04,4.2,-2.45,-1.82
-0.03,0.07,1.02,3.64,-2.45,-1.61
-0.03,0.07,1.02,2.73,-2.87,-1.61
-0.03,0.07,1.02,1.96,-3.01,-2.03
-0.03,0.07,1.02,1.33,-2.87,-2.38
-0.03,0.07,1.02,0.63,-2.45,-2.17
-0.04,0.07,1.03,0.14,-2.31,-2.03
-0.04,0.06,1.05,0.56,-2.03,-1.54
-0.04,0.06,1.05,1.89,-1.4,-0.91
-0.04,0.06,1.04,3.01,-1.61,0.14
-0.04,0.07,1.03,3.64,-1.82,0.98
-0.03,0.07,1.03,3.57,-1.26,0.84
-0.03,0.07,1.02,3.08,-1.19,1.33
-0.04,0.08,1.01,2.03,-1.33,1.96
-0.03,0.08,1.01,0.56,-1.82,2.52
-0.03,0.07,1.02,-0.63,-2.31,2.31
-0.02,0.07,1.03,-1.05,-1.96,1.68
-0.02,0.06,1.04,-0.77,-1.12,1.19
-0.02,0.05,1.05,-0.56,-0.91,1.89
-0.02,0.05,1.05,0.42,-1.61,2.45
-0.02,0.05,1.05,1.4,-1.82,2.66
-0.01,0.05,1.05,2.03,-1.26,2.73
-0.01,0.06,1.05,1.75,-0.56,1.89
-0.01,0.06,1.04,0.21,-0.77,1.54
-0.02,0.06,1.03,-0.49,-1.26,1.4
-0.02,0.06,1.04,-0.77,-2.1,1.33
-0.01,0.06,1.05,-0.21,-1.96,0.49
0,0.05,1.06,0.21,-1.54,-0.14
-0.01,0.05,1.06,1.05,-1.4,-0.07
-0.01,0.05,1.05,1.89,-1.96,0.28
-0.01,0.06,1.05,2.31,-1.96,0.56
0,0.06,1.04,2.45,-2.17,-0.21
0,0.06,1.04,2.45,-2.59,-1.26
0,0.06,1.03,2.38,-2.87,-2.17
0,0.06,1.03,2.24,-2.59,-3.01
-0.01,0.06,1.02,1.75,-2.24,-3.71
-0.01,0.06,1.02,1.33,-1.89,-3.99
-0.02,0.06,1.02,0.42,-1.54,-4.9
-0.03,0.05,1.02,-0.49,-1.19,-4.83
-0.04,0.05,1.02,-1.19,-1.47,-5.11
-0.04,0.04,1.03,-1.19,-1.96,-4.83
-0.04,0.04,1.03,-0.98,-2.73,-4.13
-0.04,0.04,1.03,-1.26,-3.01,-3.78
-0.03,0.04,1.04,-1.19,-2.94,-4.13
-0.03,0.04,1.05,-1.05,-2.24,-4.41
-0.03,0.05,1.05,-0.91,-1.96,-4.06
-0.03,0.05,1.04,-0.91,-2.38,-3.64
-0.03,0.05,1.04,-0.7,-3.01,-3.01
-0.02,0.06,1.04,-0.42,-3.57,-3.36
-0.01,0.06,1.04,-0.98,-3.5,-3.92
-0.01,0.06,1.04,-1.89,-3.29,-4.62
-0.01,0.06,1.05,-2.17,-3.57,-5.25
-0.01,0.06,1.05,-1.75,-4.13,-5.25
-0.01,0.06,1.06,-0.42,-4.41,-5.6
-0.01,0.06,1.06,0.42,-3.78,-6.23
-0.01,0.07,1.06,1.19,-3.64,-6.09
-0.02,0.07,1.05,1.82,-4.13,-6.23
-0.02,0.07,1.04,2.24,-4.62,-6.86
-0.02,0.08,1.05,2.73,-4.34,-7.42
-0.03,0.07,1.05,3.15,-3.92,-8.26
-0.03,0.06,1.05,3.43,-3.71,-8.12
-0.04,0.06,1.05,4.2,-3.99,-7.98
-0.03,0.05,1.05,5.39,-3.99,-7.91
-0.03,0.05,1.04,6.93,-3.29,-7.84
-0.04,0.05,1.02,7.07,-2.94,-7.98
-0.04,0.06,1.01,6.58,-2.52,-8.26
-0.04,0.06,1,5.32,-1.82,-8.54
-0.04,0.06,1,3.71,-1.19,-9.17
-0.04,0.05,1,2.52,-0.56,-9.45
-0.04,0.04,1,1.47,-0.49,-9.1
-0.05,0.04,1.01,-0.07,-0.28,-8.96
-0.05,0.04,1.02,-0.77,-0.28,-8.61
-0.05,0.03,1.02,-0.42,-0.28,-7.42
-0.05,0.03,1.03,-0.42,-0.28,-6.51
-0.04,0.04,1.03,-0.49,0.07,-6.44
-0.03,0.04,1.03,-0.28,0.28,-5.95
-0.02,0.05,1.03,0.49,0.21,-5.95
-0.01,0.05,1.02,0.35,0.42,-6.3
0,0.06,1.02,0,0.07,-6.58
0,0.08,1.01,-0.56,-0.21,-7.63
0,0.08,1.02,-1.26,-0.63,-8.61
0,0.08,1.03,-2.73,-0.84,-9.38
0,0.08,1.04,-3.15,-1.12,-10.57
0,0.08,1.05,-3.22,-1.05,-11.41
-0.02,0.08,1.06,-2.87,-1.05,-11.69
-0.03,0.08,1.07,-1.96,-1.12,-11.41
-0.04,0.08,1.08,-1.4,-1.12,-11.27
-0.05,0.08,1.08,-0.56,-1.05,-10.99
-0.06,0.08,1.07,0.35,-1.26,-9.94
-0.06,0.08,1.07,1.05,-1.61,-8.75
-0.07,0.08,1.06,1.82,-2.38,-7.28
-0.07,0.08,1.05,2.66,-3.01,-6.3
-0.07,0.07,1.05,3.08,-3.57,-5.04
-0.07,0.07,1.04,2.8,-3.71,-3.57
-0.06,0.07,1.03,3.22,-3.64,-3.15
-0.06,0.07,1.03,3.22,-2.87,-2.45
-0.06,0.07,1.02,3.01,-3.08,-1.61
-0.05,0.07,1.02,2.45,-2.59,-0.42
-0.05,0.06,1.02,2.17,-2.45,-0.07
-0.05,0.06,1.02,1.33,-2.38,0.56
-0.04,0.06,1.02,0.98,-2.38,0.42
-0.04,0.06,1.03,0.77,-2.94,1.54
-0.04,0.06,1.03,0.84,-2.66,1.12
-0.03,0.06,1.03,1.19,-1.75,1.47
-0.03,0.07,1.03,0.91,-1.12,1.82
-0.03,0.07,1.03,0.35,-0.98,1.96
-0.03,0.07,1.03,-0.14,-0.7,2.03
-0.03,0.08,1.03,-0.77,-0.49,2.45
-0.03,0.08,1.03,-0.91,-0.91,2.59
-0.03,0.08,1.04,-0.7,-1.54,2.87
-0.03,0.08,1.04,0.07,-1.82,3.64
-0.03,0.08,1.04,0.84,-2.03,4.41
-0.03,0.08,1.03,0.91,-1.96,4.97
-0.03,0.09,1.04,0,-1.82,4.83
-0.03,0.09,1.04,-0.49,-2.03,5.04
-0.03,0.08,1.05,0,-2.24,5.32
-0.03,0.08,1.05,0.77,-2.59,6.09
-0.04,0.08,1.05,1.19,-2.8,6.58
-0.03,0.08,1.05,1.4,-2.24,6.58
-0.04,0.08,1.05,1.89,-1.54,7.28
-0.04,0.08,1.04,2.03,-1.33,7.91
-0.04,0.08,1.04,1.47,-1.68,8.47
-0.04,0.08,1.05,1.47,-1.47,8.33
-0.05,0.07,1.05,2.03,-1.75,8.82
-0.05,0.06,1.05,2.8,-2.17,9.8
-0.05,0.06,1.05,2.94,-2.31,10.71
-0.04,0.06,1.05,3.01,-1.75,11.2
-0.04,0.06,1.04,3.01,-1.4,12.18
-0.05,0.06,1.03,3.01,-1.61,13.58
-0.05,0.06,1.02,2.38,-2.17,14.28
-0.04,0.06,1.02,1.68,-2.8,15.12
-0.04,0.06,1.01,1.19,-3.15,15.75
-0.03,0.05,1.01,0.49,-3.43,15.96
-0.03,0.05,1.02,0.28,-3.71,15.47
-0.02,0.04,1.02,0.98,-3.29,14.98
-0.02,0.04,1.02,1.33,-2.59,14.7
-0.02,0.05,1.02,1.33,-2.73,14.7
-0.01,0.05,1.02,0.42,-1.75,13.72
-0.01,0.05,1.03,-0.35,-0.42,13.02
-0.01,0.05,1.04,-1.12,0.56,12.32
-0.02,0.04,1.04,-1.26,1.12,11.76
-0.02,0.04,1.05,-0.98,0.98,11.69
-0.02,0.04,1.05,0.07,0.42,11.62
-0.02,0.04,1.05,0.98,0.35,11.55
-0.01,0.05,1.05,0.77,0.56,10.78
-0.01,0.05,1.05,0.84,0.42,9.8
-0.01,0.05,1.05,1.68,0.91,9.17
-0.01,0.05,1.05,2.03,0.98,9.17
-0.01,0.05,1.04,2.59,0.77,8.89
-0.01,0.05,1.04,2.66,0.42,8.19
-0.02,0.06,1.03,2.31,0.07,7.56
-0.02,0.06,1.03,1.96,-0.21,7
-0.02,0.06,1.03,1.47,0.14,6.44
-0.03,0.06,1.02,0.84,0,6.16
-0.03,0.06,1.02,0.49,0.35,6.23
-0.04,0.05,1.02,0.07,0.35,6.09
-0.04,0.05,1.02,-0.14,0.21,6.44
-0.05,0.05,1.02,-0.56,0.07,6.58
-0.05,0.05,1.02,-1.12,-0.49,6.72
-0.05,0.06,1.02,-1.96,-0.63,6.86
-0.06,0.05,1.03,-2.66,-0.98,7.28
-0.06,0.05,1.03,-3.5,-1.4,8.4
-0.07,0.05,1.04,-3.64,-2.03,9.24
-0.07,0.06,1.04,-3.85,-2.38,10.08
-0.07,0.06,1.04,-4.48,-2.59,10.85
-0.07,0.06,1.04,-5.11,-2.87,11.55
-0.06,0.06,1.05,-4.9,-3.22,12.11
-0.06,0.06,1.05,-4.76,-3.22,12.67
-0.06,0.06,1.05,-4.69,-3.64,13.44
-0.06,0.06,1.05,-4.06,-4.2,14.07
-0.04,0.06,1.06,-3.85,-4.27,13.93
-0.04,0.05,1.06,-2.8,-4.13,13.79
-0.04,0.05,1.06,-1.68,-4.48,13.72
-0.03,0.05,1.06,-0.7,-4.48,14.21
-0.02,0.06,1.05,0.14,-4.62,13.72
-0.01,0.05,1.04,0.7,-4.27,12.95
-0.01,0.06,1.04,0.21,-3.57,11.62
-0.01,0.05,1.04,0.49,-3.08,10.43
-0.01,0.05,1.05,0.7,-2.8,9.52
0,0.04,1.05,1.12,-2.52,7.98
0,0.04,1.05,1.54,-1.68,6.02
0,0.03,1.06,2.03,-1.4,5.18
-0.01,0.03,1.05,2.8,-1.75,4.69
-0.01,0.03,1.05,3.15,-2.17,4.41
-0.01,0.03,1.05,3.15,-2.17,3.22
-0.01,0.03,1.04,3.22,-2.17,2.59
-0.02,0.03,1.03,3.64,-2.1,2.24
-0.02,0.03,1.03,3.01,-2.17,1.89
-0.02,0.03,1.03,2.31,-2.1,1.82
-0.03,0.03,1.02,1.33,-1.96,1.68
-0.03,0.03,1.02,0.98,-2.1,1.82
-0.03,0.03,1.02,1.05,-2.73,1.68
-0.04,0.03,1.02,1.12,-2.94,2.1
-0.04,0.04,1.02,0.91,-3.43,2.24
-0.04,0.04,1.02,-0.07,-3.22,1.68
-0.04,0.04,1.02,-1.33,-2.94,1.4
-0.05,0.04,1.03,-1.89,-2.87,1.89
-0.05,0.04,1.04,-1.61,-3.01,2.45
-0.05,0.04,1.04,-1.19,-2.45,2.17
-0.05,0.04,1.04,-0.21,-2.1,2.66
-0.05,0.04,1.04,0,-1.68,2.45
-0.05,0.04,1.04,0.63,-1.47,2.94
-0.05,0.05,1.03,1.47,-1.33,3.22
-0.05,0.05,1.03,1.47,-1.12,3.43
-0.04,0.06,1.03,1.47,-1.33,3.43
-0.04,0.06,1.02,1.4,-1.54,3.15
-0.03,0.06,1.03,0.98,-1.33,3.01
-0.03,0.06,1.04,0.28,-1.05,2.1
-0.02,0.06,1.05,0.63,-0.98,0.84
-0.02,0.06,1.05,1.82,-0.49,0.35
-0.01,0.06,1.06,3.15,-0.28,-0.63
-0.01,0.06,1.06,3.64,0.14,-1.75
-0.01,0.06,1.06,4.34,-0.07,-2.59
0,0.06,1.06,4.55,0,-3.92
0,0.07,1.06,4.76,0.21,-4.83
0,0.07,1.06,5.11,0.35,-6.3
-0.01,0.07,1.05,4.9,0.63,-7.14
-0.01,0.07,1.06,4.76,0.56,-7.7
-0.02,0.07,1.05,4.06,0.56,-8.54
-0.03,0.06,1.05,3.71,0.7,-8.96
-0.04,0.06,1.05,3.71,1.12,-9.17
-0.06,0.05,1.05,3.99,1.19,-8.82
-0.06,0.04,1.04,4.27,0.77,-7.35
-0.08,0.03,1.03,4.48,0.63,-5.88
-0.09,0.03,1.02,4.27,0.56,-4.06
-0.09,0.03,1,3.85,0.14,-1.33
-0.1,0.03,0.98,3.01,-0.84,0.77
-0.11,0.03,0.97,1.54,-1.82,3.15
-0.1,0.04,0.96,-0.07,-3.01,5.04
-0.1,0.04,0.96,-2.03,-3.78,6.44
-0.09,0.04,0.97,-3.64,-3.92,7.49
-0.08,0.04,0.98,-5.81,-3.99,8.61
-0.08,0.04,1.01,-7,-4.13,9.38
-0.07,0.04,1.03,-7.77,-3.99,9.59
-0.06,0.03,1.05,-7.63,-3.99,10.08
-0.06,0.03,1.08,-6.72,-3.92,9.94
-0.05,0.03,1.09,-5.39,-3.78,9.52
-0.03,0.04,1.11,-4.06,-2.73,8.75
-0.03,0.04,1.11,-1.75,-1.96,7.98
-0.02,0.04,1.1,-0.35,-1.12,7.07
-0.01,0.05,1.08,0.84,-0.35,5.95
-0.01,0.06,1.07,1.26,0.42,4.41
0,0.07,1.06,1.12,0.77,3.22
0,0.07,1.05,1.33,0.63,1.26
0,0.07,1.05,1.89,0.49,-0.28
0,0.07,1.04,1.47,0.56,-1.4
-0.01,0.07,1.04,1.33,0.35,-1.89
-0.01,0.07,1.04,0.77,-0.21,-2.45
-0.02,0.06,1.04,0.98,-1.12,-2.45
-0.02,0.06,1.05,1.33,-1.54,-2.45
-0.04,0.06,1.04,1.68,-2.38,-1.61
-0.04,0.06,1.04,1.68,-3.78,-0.56
-0.04,0.06,1.03,1.33,-4.62,0.07
-0.05,0.06,1.03,1.05,-5.25,0.49
-0.05,0.06,1.03,0.91,-5.32,1.12
-0.05,0.06,1.03,0.49,-5.18,1.33
-0.06,0.05,1.04,0.84,-5.39,1.75
-0.06,0.05,1.04,0.91,-5.53,2.03
-0.06,0.06,1.04,0.77,-5.95,2.73
-0.06,0.05,1.04,0.84,-6.44,2.94
-0.06,0.05,1.04,0.56,-7.07,3.36
-0.06,0.05,1.04,0.7,-7.28,3.43
-0.05,0.05,1.04,1.19,-7.07,3.22
-0.05,0.05,1.04,1.05,-6.3,3.43
-0.05,0.05,1.04,0.98,-5.95,3.22
-0.05,0.04,1.04,1.61,-5.25,2.87
-0.05,0.05,1.03,2.24,-4.55,3.08
-0.05,0.05,1.02,1.82,-4.13,3.15
-0.05,0.05,1.02,0.84,-4.06,2.8
-0.05,0.05,1.02,-0.49,-4.27,1.82
-0.05,0.04,1.03,-0.84,-3.99,1.54
-0.05,0.04,1.04,-0.84,-3.78,1.4
-0.05,0.04,1.05,-0.42,-3.08,1.33
-0.06,0.03,1.05,0.28,-2.24,1.75
-0.06,0.03,1.04,0.91,-1.96,2.38
-0.06,0.03,1.04,1.47,-1.89,2.94
-0.05,0.03,1.02,1.96,-1.82,3.01
-0.05,0.04,1.02,1.26,-1.4,3.08
-0.05,0.04,1.01,0.28,-1.26,3.22
-0.04,0.05,1,-1.33,-1.05,2.8
-0.03,0.05,1.01,-3.43,-0.77,2.31
-0.03,0.06,1.03,-5.6,0.56,1.54
-0.03,0.06,1.05,-7.14,1.68,0.84
-0.04,0.06,1.06,-7.77,2.17,1.12
-0.04,0.06,1.08,-7.49,1.89,1.26
-0.05,0.06,1.09,-6.37,0.77,2.31
-0.05,0.06,1.1,-5.25,-0.7,3.22
-0.04,0.07,1.1,-3.99,-1.54,3.99
-0.04,0.07,1.1,-2.8,-2.45,4.69
-0.04,0.07,1.09,-1.19,-3.29,5.95
-0.04,0.08,1.09,0,-4.62,6.86
-0.02,0.07,1.08,1.89,-5.39,7.28
-0.02,0.08,1.08,3.29,-5.95,7.42
-0.02,0.08,1.07,4.83,-7.56,8.05
-0.01,0.08,1.06,5.67,-8.47,7.84
0,0.08,1.05,6.72,-9.73,7.35
0.01,0.08,1.05,7.7,-10.08,7
0.01,0.08,1.04,8.26,-11.13,6.23
0.01,0.08,1.03,8.68,-11.9,4.97
0.02,0.07,1.03,9.45,-11.97,3.22
0.01,0.07,1.03,9.8,-11.69,1.82
0.01,0.07,1.02,9.52,-11.2,0.21
0,0.06,1.02,8.96,-10.99,-0.91
-0.01,0.06,1.03,8.4,-11.06,-1.75
-0.01,0.05,1.03,8.68,-10.92,-2.52
-0.01,0.05,1.03,9.38,-10.64,-3.5
-0.02,0.04,1.03,9.87,-10.22,-4.13
-0.03,0.04,1.03,9.45,-9.87,-4.76
-0.02,0.04,1.04,8.89,-8.61,-6.16
-0.03,0.03,1.04,9.1,-7.28,-6.3
-0.04,0.03,1.05,9.66,-6.65,-6.37
-0.04,0.03,1.04,10.15,-6.44,-6.3
-0.05,0.03,1.03,10.64,-6.3,-6.37
-0.05,0.02,1.02,10.92,-5.81,-6.02
-0.05,0.03,1.01,10.15,-4.76,-5.81
-0.05,0.03,0.99,9.17,-3.92,-5.46
-0.05,0.03,0.99,8.12,-2.73,-5.6
-0.05,0.03,0.99,6.93,-1.82,-5.74
-0.05,0.03,0.98,6.23,-1.05,-5.39
-0.05,0.03,0.98,5.25,-0.7,-4.83
-0.05,0.04,0.98,3.85,-0.14,-4.41
-0.05,0.03,0.98,2.1,0.14,-4.2
-0.05,0.04,0.99,0.98,0.35,-3.64
-0.05,0.04,0.99,-0.07,0.56,-2.45
-0.05,0.04,0.99,-1.47,0.56,-1.96
-0.04,0.04,1.01,-2.31,1.05,-2.1
-0.04,0.04,1.01,-2.66,1.82,-2.1
-0.05,0.04,1.02,-2.59,2.31,-1.26
-0.05,0.05,1.03,-3.01,2.03,0.07
-0.04,0.05,1.04,-3.71,1.82,0.42
-0.04,0.05,1.04,-3.36,1.89,0.7
-0.03,0.05,1.04,-2.8,2.1,0.84
-0.03,0.05,1.04,-2.8,1.89,1.4
-0.03,0.06,1.04,-3.22,1.89,1.19
-0.02,0.06,1.05,-2.87,1.26,1.33
-0.01,0.06,1.05,-1.89,1.4,0.91
-0.01,0.06,1.05,-1.47,2.1,0.49
0,0.06,1.05,-1.61,2.87,-0.35
0,0.07,1.05,-2.24,3.5,-0.84
-0.01,0.07,1.05,-2.17,3.36,-1.26
-0.01,0.07,1.06,-2.17,2.8,-0.98
-0.01,0.07,1.06,-1.54,1.82,-1.19
-0.01,0.07,1.06,-0.14,1.05,-1.26
0,0.07,1.05,0.91,0.56,-1.75
0,0.08,1.05,1.33,1.05,-2.94
0,0.08,1.04,0.91,1.4,-3.5
-0.01,0.08,1.04,0.14,1.05,-3.22
-0.01,0.08,1.05,0.35,-0.14,-3.43
-0.01,0.08,1.05,0.84,-1.12,-3.71
0,0.08,1.05,1.89,-1.75,-3.5
-0.01,0.08,1.05,1.96,-2.45,-4.27
0,0.08,1.06,1.68,-2.59,-5.53
-0.01,0.07,1.06,1.54,-2.03,-6.16
-0.01,0.07,1.07,2.03,-1.4,-6.16
-0.02,0.06,1.07,3.36,-1.68,-5.53
-0.03,0.06,1.06,4.27,-2.31,-5.04
-0.03,0.06,1.05,5.39,-2.8,-4.34
-0.03,0.07,1.03,5.6,-3.08,-4.48
-0.03,0.07,1.02,4.41,-3.36,-4.48
-0.03,0.08,1.01,2.31,-3.78,-4.83
-0.04,0.08,1.02,-0.49,-3.92,-4.97
-0.04,0.07,1.03,-1.4,-4.2,-4.27
-0.04,0.06,1.04,-1.82,-4.62,-3.43
-0.05,0.05,1.05,-0.98,-4.83,-2.45
-0.05,0.05,1.05,0.07,-4.9,-1.54
-0.05,0.06,1.05,0.7,-5.39,-0.91
-0.04,0.07,1.04,0.28,-5.39,-1.05
-0.03,0.07,1.04,-0.35,-4.9,-1.05
-0.03,0.07,1.05,-0.91,-5.04,-0.84
-0.03,0.07,1.04,-0.84,-5.81,-0.7
-0.02,0.07,1.05,-1.12,-6.65,-1.05
0,0.08,1.05,-1.89,-6.44,-1.89
0.01,0.07,1.06,-3.71,-5.6,-3.85
0.02,0.07,1.07,-4.62,-3.92,-6.09
0.01,0.06,1.08,-4.2,-2.73,-7.91
0.01,0.05,1.08,-2.24,-2.59,-7.7
-0.12,0.06,1.06,-1.61,-3.43,-7.49
0,0.07,1.04,-0.21,-5.6,-7.98
0.03,0.08,1.04,-0.84,-5.04,-9.38
0.04,0.09,1.03,-2.03,-4.13,-11.76
0.04,0.1,1.02,-4.13,-1.4,-14.07
0.02,0.11,1.02,-6.93,0.63,-16.24
0.01,0.1,1.02,-9.38,1.47,-17.36
0,0.09,1.04,-10.08,1.68,-17.22
-0.01,0.08,1.05,-7.56,1.33,-16.94
-0.01,0.08,1.02,-5.32,0.56,-16.38
-0.02,0.1,1.01,-5.53,-0.14,-16.52
-0.02,0.1,1,-9.31,0.84,-17.71
-0.04,0.09,1.03,-13.93,2.31,-18.41
-0.07,0.07,1.06,-13.58,2.45,-16.38
-0.09,0.05,1.07,-9.66,0.63,-12.95
-0.1,0.05,1.06,-3.78,-1.05,-8.89
-0.1,0.06,1.03,-1.05,-3.22,-5.32
-0.1,0.07,1.02,-1.47,-4.13,-3.29
-0.1,0.06,1.02,-1.47,-4.69,-0.91
-0.1,0.05,1.01,1.82,-5.88,2.31
-0.09,0.06,0.99,3.92,-7.49,5.74
-0.08,0.06,0.98,4.2,-8.89,6.93
-0.06,0.05,0.99,2.87,-9.52,7.21
-0.05,0.03,1.01,3.78,-9.03,7.77
-0.05,0.01,1.02,7.42,-7.49,9.38
-0.04,0.01,1.01,11.69,-5.39,10.92
-0.04,0.01,0.98,15.26,-4.97,11.48
-0.04,0.01,0.95,15.54,-6.86,11.34
-0.03,0.02,0.95,15.61,-6.65,9.94
-0.02,0.01,0.93,13.65,-4.9,9.24
-0.03,0.02,0.92,10.85,-5.67,8.4
-0.03,0.02,0.93,6.44,-5.53,6.3
-0.03,0.02,0.96,0.98,-3.15,5.25
-0.04,0.01,0.98,-5.04,-3.29,4.62
-0.05,-0.02,1.02,-9.03,-6.09,4.06
-0.04,-0.04,1.07,-13.09,-9.59,3.29
-0.03,-0.06,1.12,-16.66,-9.73,1.96
-0.02,-0.09,1.18,-17.71,-7.98,0.28
-0.03,-0.11,1.2,-15.96,-6.86,-0.63
-0.04,-0.11,1.21,-12.25,-6.65,-0.7
-0.05,-0.1,1.2,-5.6,-7.07,0.07
-0.05,-0.08,1.17,-0.63,-6.23,1.47
-0.04,-0.06,1.13,3.5,-5.32,2.1
-0.04,-0.04,1.09,6.65,-4.27,2.03
-0.03,-0.03,1.04,9.59,-4.06,1.82
-0.02,-0.01,1,10.5,-4.41,1.19
-0.01,0,0.97,10.92,-4.76,-0.21
0,0.02,0.95,10.22,-3.92,-1.82
0.01,0.04,0.92,9.17,-1.61,-3.22
0.01,0.06,0.91,7.42,0.28,-5.67
0.01,0.07,0.91,4.06,2.52,-8.19
0,0.08,0.92,1.68,3.64,-9.94
-0.02,0.09,0.95,-0.35,4.34,-12.39
-0.04,0.09,0.98,-1.54,4.97,-13.44
-0.05,0.09,1,-2.17,6.65,-14.21
-0.07,0.09,1.04,-1.61,7.77,-14.07
-0.08,0.08,1.06,-0.63,8.68,-13.79
-0.08,0.08,1.08,0.49,10.15,-13.44
-0.09,0.08,1.09,1.68,10.85,-12.74
-0.09,0.08,1.1,2.73,11.34,-12.53
-0.08,0.07,1.12,3.78,12.11,-12.53
-0.08,0.07,1.13,5.39,13.02,-12.32
-0.08,0.06,1.13,7.07,13.44,-11.55
-0.09,0.06,1.13,8.82,13.79,-10.36
-0.08,0.05,1.13,10.29,13.37,-9.45
-0.07,0.05,1.12,12.39,13.51,-7.91
-0.07,0.04,1.1,13.3,14.07,-6.37
-0.06,0.04,1.07,13.44,14.42,-5.67
-0.06,0.05,1.05,14.28,13.58,-4.2
-0.07,0.06,1.01,13.93,12.04,-2.38
-0.06,0.07,0.98,12.46,10.29,0.07
-0.06,0.08,0.96,9.94,8.47,1.68
-0.05,0.09,0.96,5.53,6.93,2.52
-0.05,0.1,0.97,1.82,5.04,3.71
-0.05,0.1,0.99,-1.19,2.52,4.83
-0.04,0.09,1.02,-2.66,0.84,5.67
-0.03,0.09,1.05,-1.75,0.56,7.07
-0.03,0.09,1.06,-1.82,1.89,9.45
-0.04,0.1,1.06,-2.1,-0.35,10.15
-0.03,0.09,1.08,-3.15,-3.57,9.8
-0.02,0.08,1.1,-2.59,-6.09,9.8
-0.01,0.07,1.11,-1.4,-8.19,9.52
-0.01,0.07,1.12,0.35,-9.8,8.19
-0.01,0.06,1.11,2.24,-11.69,7.28
0,0.06,1.1,4.27,-13.37,6.09
0.01,0.06,1.09,5.32,-14.07,4.41
0.02,0.06,1.06,5.32,-14.07,2.1
0.02,0.06,1.04,4.27,-14.42,-1.19
0.03,0.04,1.03,3.64,-13.37,-4.55
0.03,0.04,1.02,2.52,-11.27,-7.35
0.02,0.04,1,2.52,-9.52,-9.52
0.01,0.03,0.99,3.5,-8.47,-11.06
0,0.03,0.97,4.06,-7.28,-12.25
0,0.03,0.95,3.99,-6.93,-13.44
-0.01,0.04,0.94,3.78,-6.72,-15.12
-0.01,0.05,0.94,3.22,-4.34,-15.26
-0.03,0.05,0.93,1.54,-3.57,-15.12
-0.04,0.06,0.94,-0.84,-2.1,-15.96
-0.06,0.06,0.95,-2.66,-0.49,-15.89
-0.09,0.06,0.96,-3.78,0.21,-14.35
-0.11,0.05,0.97,-5.67,-0.42,-12.25
-0.12,0.06,1,-7.49,-1.05,-9.8
-0.13,0.05,1.01,-8.68,-2.66,-7.49
-0.13,0.04,1.04,-8.68,-3.5,-5.18
-0.13,0.04,1.07,-7.7,-3.57,-2.73
-0.13,0.03,1.07,-5.74,-4.13,0.56
-0.12,0.03,1.08,-3.36,-4.2,2.94
-0.11,0.03,1.07,-0.49,-4.13,5.11
-0.1,0.05,1.05,0.14,-3.22,6.65
-0.1,0.06,1.04,-0.21,-1.54,7.07
-0.1,0.07,1.03,-2.38,-0.91,7.28
-0.1,0.07,1.03,-4.2,-0.63,7.84
-0.11,0.07,1.04,-6.09,-1.54,7.98
-0.12,0.06,1.06,-7.77,-3.01,8.68
-0.12,0.05,1.09,-9.24,-4.83,9.24
-0.12,0.04,1.13,-9.87,-6.16,10.29
-0.1,0.01,1.16,-9.1,-4.97,10.78
-0.08,-0.01,1.17,-5.88,-4.76,11.83
-0.06,-0.01,1.18,-1.82,-4.2,11.76
-0.04,-0.02,1.17,2.38,-3.08,11.34
-0.02,-0.01,1.15,5.95,-1.61,11.48
0,0,1.11,8.68,-0.7,10.92
0.01,0.02,1.07,8.89,-0.14,9.38
0.03,0.03,1.05,7.77,0.7,6.65
0.03,0.03,1.03,7.21,0.42,4.2
0.03,0.04,1.01,7.84,-0.21,2.45
0.03,0.04,0.99,7.91,-0.35,0.98
0.03,0.05,0.97,7.07,0.56,-0.35
0.03,0.06,0.96,4.76,0.7,-1.19
0.02,0.07,0.96,2.66,1.19,-2.31
0.02,0.06,0.96,0.98,1.33,-3.64
0,0.07,0.96,-0.42,1.05,-3.85
-0.01,0.07,0.96,-1.61,0.49,-3.92
-0.02,0.06,0.96,-2.38,-0.84,-2.87
-0.04,0.07,0.96,-4.13,-3.43,-2.45
-0.04,0.06,0.97,-5.81,-5.11,-1.68
-0.05,0.06,0.99,-7.42,-6.37,-0.91
-0.06,0.06,1,-8.33,-7,0.56
-0.07,0.06,1.01,-8.96,-7.98,1.89
-0.08,0.06,1.01,-9.38,-9.03,3.71
-0.09,0.06,1.03,-10.01,-10.43,5.46
-0.08,0.06,1.04,-10.08,-11.34,6.37
-0.08,0.06,1.06,-10.92,-11.34,7
-0.09,0.06,1.08,-11.06,-10.64,8.12
-0.08,0.05,1.09,-10.22,-9.52,8.89
-0.08,0.04,1.11,-8.12,-7.84,9.94
-0.07,0.04,1.11,-5.39,-7.07,10.64
-0.07,0.04,1.11,-2.38,-6.65,10.78
-0.06,0.05,1.1,0.21,-4.55,11.41
-0.06,0.06,1.08,1.75,-3.99,11.9
-0.05,0.07,1.06,2.03,-3.99,11.69
-0.05,0.07,1.05,2.31,-4.06,11.41
-0.04,0.06,1.05,2.45,-3.92,11.06
-0.04,0.06,1.05,3.08,-3.85,10.92
-0.04,0.05,1.04,4.06,-4.34,10.22
-0.03,0.04,1.04,4.83,-4.55,9.52
-0.02,0.04,1.04,6.3,-4.83,8.61
-0.01,0.04,1.04,6.23,-3.78,7.28
-0.01,0.03,1.04,6.58,-3.15,5.81
-0.01,0.02,1.04,6.86,-2.73,4.48
-0.06,0.09,1.05,1.05,-1.75,6.3
-0.06,0.08,1.05,2.17,-1.89,6.16
-0.06,0.08,1.04,3.22,-2.59,6.3
-0.05,0.09,1.03,2.8,-2.45,6.02
-0.06,0.09,1.02,1.89,-2.17,6.58
-0.06,0.09,1.02,0.21,-2.38,7.28
-0.07,0.08,1.02,0.35,-3.43,7.77
-0.05,0.08,1.03,0.63,-2.73,7.7
-0.05,0.08,1.03,0.42,-1.47,7.21
-0.06,0.08,1.04,0.35,-0.98,6.79
-0.06,0.07,1.04,1.4,-0.91,7.35
-0.05,0.07,1.03,1.82,-0.91,7.77
-0.05,0.08,1.03,0.84,-1.12,7.98
-0.06,0.08,1.03,0,-2.03,8.26
-0.05,0.07,1.03,-0.07,-3.15,7.77
-0.04,0.08,1.04,-0.28,-3.36,6.44
-0.04,0.08,1.04,-0.7,-3.15,5.88
-0.04,0.08,1.04,-1.12,-3.22,5.95
-0.03,0.08,1.05,-1.26,-3.01,6.02
-0.02,0.07,1.06,0.77,-2.17,5.04
-0.01,0.08,1.05,1.89,-0.77,2.52
-0.02,0.09,1.04,1.4,-0.21,0.98
-0.03,0.09,1.04,0.84,-1.26,1.12
-0.04,0.08,1.04,1.19,-2.1,1.19
-0.04,0.09,1.03,1.68,-2.66,1.68
-0.05,0.09,1.03,0.98,-3.36,1.33
-0.05,0.09,1.03,0.42,-3.78,0.49
-0.04,0.08,1.03,0.56,-2.59,-0.42
-0.05,0.08,1.03,0.14,-1.26,-1.05
-0.07,0.08,1.03,-0.42,-1.33,-0.98
-0.07,0.07,1.03,-0.42,-2.1,-0.28
-0.07,0.07,1.03,-0.63,-2.94,0.98
-0.08,0.07,1.03,-0.35,-3.99,1.75
-0.07,0.07,1.03,-0.35,-3.92,2.24
-0.07,0.07,1.03,0.14,-3.78,2.31
-0.06,0.07,1.03,0.77,-2.8,1.61
-0.07,0.08,1.02,0.28,-1.68,1.82
-0.06,0.08,1.03,-0.56,-1.75,2.1
-0.07,0.08,1.03,-1.33,-1.82,2.38
-0.05,0.07,1.03,-1.61,-1.89,1.96
-0.06,0.08,1.04,-1.19,-1.82,1.96
-0.05,0.08,1.04,-0.98,-2.52,1.4
-0.05,0.08,1.04,-0.35,-2.52,1.68
-0.04,0.08,1.03,17.85,-2.38,1.89
-0.04,0.08,1.03,0.28,-2.38,1.82
-0.04,0.08,1.03,0.21,-2.03,1.75
-0.04,0.08,1.03,-0.28,-1.96,1.4
-0.04,0.08,1.03,-1.19,-2.38,1.4
-0.04,0.08,1.05,-1.19,-2.45,0.7
-0.03,0.08,1.07,-0.7,-0.98,-0.84
-0.04,0.08,1.06,-0.14,-0.21,-0.84
-0.05,0.07,1.05,0.63,-1.4,-0.14
-0.05,0.08,1.04,1.19,-2.45,0.63
-0.04,0.08,1.04,0.91,-1.89,0.91
-0.05,0.08,1.03,0.84,-1.96,0.49
-0.04,0.08,1.04,1.82,-1.96,-1.47
-0.04,0.09,1.03,1.68,-0.21,-3.5
-0.06,0.08,1.03,1.33,0.14,-2.66
-0.07,0.08,1.03,0.77,-0.56,-1.05
-0.07,0.08,1.02,0.42,-1.96,0.7
-0.07,0.08,1.03,0.07,-2.8,1.61
-0.07,0.08,1.04,-0.28,-4.06,2.1
-0.06,0.07,1.05,0.7,-4.55,1.33
-0.05,0.07,1.04,1.54,-3.29,0.7
-0.05,0.07,1.04,2.17,-2.73,1.05
-0.06,0.08,1.03,2.03,-2.38,1.61
-0.05,0.08,1.03,0.98,-2.1,1.47
-0.05,0.08,1.04,0.91,-2.1,1.05
-0.06,0.08,1.04,0.91,-2.8,0.98
-0.06,0.08,1.05,1.05,-3.29,1.33
-0.06,0.08,1.05,0.98,-3.22,1.47
-0.06,0.07,1.05,1.61,-3.15,1.82
-0.06,0.08,1.05,2.87,-3.64,1.82
-0.04,0.08,1.05,3.15,-2.73,0
-0.04,0.08,1.05,3.5,-1.33,-0.35
-0.05,0.08,1.04,4.27,-1.61,0.14
-0.06,0.08,1.03,4.69,-2.59,1.19
-0.05,0.08,1.03,4.41,-3.01,1.19
-0.05,0.08,1.02,3.92,-3.29,0.77
-0.05,0.09,1.02,3.01,-3.22,0.49
-0.05,0.08,1.02,2.24,-2.45,-0.56
-0.05,0.08,1.02,1.89,-1.4,0
-0.07,0.08,1.02,1.19,-1.68,0.42
-0.07,0.08,1.02,1.05,-2.73,1.33
-0.07,0.07,1.03,1.26,-3.5,1.82
-0.06,0.08,1.04,2.31,-3.29,1.33
-0.05,0.09,1.04,2.17,-2.45,-0.21
-0.06,0.08,1.04,1.19,-1.19,-0.7
-0.07,0.08,1.04,1.4,-1.19,0.42
-0.07,0.08,1.03,1.82,-1.33,1.61
-0.07,0.08,1.03,2.45,-1.54,2.38
-0.07,0.09,1.02,2.24,-2.31,2.31
-0.08,0.09,1.02,1.61,-3.15,2.38
-0.07,0.09,1.02,1.05,-3.22,3.15
-0.08,0.08,1.03,0.49,-2.66,3.85
-0.08,0.08,1.03,0.63,-2.73,4.41
-0.07,0.08,1.04,1.33,-2.45,4.76
-0.07,0.09,1.03,1.47,-1.33,4.48
-0.07,0.09,1.02,0.98,-0.98,4.76
-0.07,0.09,1.02,0.98,-1.12,5.04
-0.07,0.09,1.02,1.05,-1.12,5.67
-0.07,0.09,1.01,0.42,-1.54,5.95
-0.07,0.09,1.01,-0.35,-1.61,6.79
-0.07,0.09,1.02,-1.12,-1.89,7.35
-0.07,0.09,1.02,-1.54,-1.33,6.86
-0.07,0.09,1.02,-2.66,0.56,6.37
-0.07,0.08,1.03,-2.8,1.54,6.51
-0.08,0.08,1.03,-2.38,1.61,7.28
-0.08,0.08,1.04,-1.68,0.84,8.47
-0.08,0.08,1.04,-0.77,0.07,9.73
-0.08,0.09,1.04,-0.84,-0.28,10.43
-0.08,0.09,1.04,-1.26,0.14,10.85
-0.08,0.1,1.04,-1.96,0.98,10.85
-0.07,0.1,1.05,-1.82,1.61,11.2
-0.07,0.09,1.05,-1.47,1.96,12.39
-0.08,0.09,1.05,-1.26,1.19,12.88
-0.08,0.09,1.05,-0.7,0.28,13.58
-0.07,0.09,1.06,0.56,-0.14,13.86
-0.06,0.09,1.07,1.75,0.7,12.32
-0.07,0.09,1.06,2.31,1.89,11.62
-0.07,0.09,1.05,3.5,1.54,12.04
-0.07,0.09,1.04,3.36,1.4,13.16
-0.07,0.09,1.03,3.01,1.61,13.72
-0.07,0.09,1.02,2.31,0.98,14
-0.07,0.09,1.02,2.24,0.56,13.65
-0.07,0.09,1.02,1.68,1.05,12.74
-0.07,0.09,1.01,0.7,1.61,12.25
-0.08,0.09,1.01,-0.98,1.61,12.39
-0.08,0.08,1.01,-1.54,0.56,13.65
-0.09,0.08,1.02,-2.03,-0.7,14.56
-0.09,0.08,1.03,-2.87,-1.12,14.84
-0.08,0.08,1.04,-3.5,-1.12,14.77
-0.09,0.07,1.05,-2.94,-1.19,14.91
-0.09,0.06,1.05,-1.61,-0.84,15.47
-0.09,0.07,1.05,-0.21,-0.35,16.17
-0.09,0.07,1.03,0.42,-0.49,17.22
-0.08,0.08,1.03,0,-0.7,17.64
-0.07,0.08,1.03,-0.84,-0.14,16.52
-0.07,0.08,1.02,-1.68,0.7,15.19
-0.08,0.08,1.02,-2.03,0.49,15.05
-0.08,0.08,1.03,-2.59,0.07,15.4
-0.08,0.07,1.03,-3.01,-0.21,15.4
-0.07,0.07,1.04,-3.08,-0.56,15.19
-0.07,0.07,1.04,-3.08,-0.98,15.33
-0.07,0.07,1.04,-2.52,-1.4,14.98
-0.06,0.07,1.05,-1.82,-0.49,13.79
-0.06,0.07,1.05,-1.05,0.7,12.67
-0.06,0.07,1.05,-0.35,0.63,12.88
-0.06,0.07,1.04,-0.35,0.07,12.6
-0.06,0.07,1.04,-0.28,-0.98,12.18
-0.06,0.07,1.03,-0.63,-1.47,11.34
-0.06,0.07,1.03,-1.19,-1.96,10.22
-0.06,0.07,1.04,-1.26,-1.89,8.96
-0.06,0.07,1.04,-1.12,-1.33,8.33
-0.07,0.07,1.04,-0.91,-1.05,8.4
-0.07,0.07,1.04,-0.84,-1.4,8.4
-0.07,0.06,1.05,-0.84,-1.54,7.77
-0.07,0.06,1.05,0.14,-1.19,7.63
-0.08,0.06,1.05,0.77,-1.54,7.7
-0.09,0.06,1.05,1.4,-2.38,7.91
-0.08,0.06,1.05,1.75,-2.03,7.77
-0.08,0.06,1.04,2.03,-1.68,7.7
-0.09,0.07,1.04,2.1,-1.82,7.84
-0.08,0.06,1.04,2.59,-2.45,7.7
-0.08,0.07,1.04,2.73,-1.89,7.28
-0.08,0.06,1.04,3.29,-1.89,6.65
-0.08,0.06,1.03,4.41,-2.17,7.14
-0.07,0.07,1.03,4.76,-2.38,6.93
-0.07,0.07,1.03,5.04,-1.61,6.02
-0.07,0.07,1.02,4.9,-0.84,4.9
-0.07,0.07,1.01,4.48,-1.12,4.55
-0.08,0.07,1.02,3.36,-1.4,4.27
-0.08,0.07,1.02,2.52,-1.68,4.27
-0.08,0.07,1.04,2.59,-0.98,3.85
-0.07,0.07,1.04,3.08,0.56,3.29
-0.07,0.06,1.04,3.78,1.89,3.15
-0.07,0.07,1.03,4.48,2.45,3.36
-0.08,0.07,1.03,4.13,2.59,3.15
-0.07,0.08,1.03,2.59,2.73,2.59
-0.08,0.08,1.03,2.59,1.96,2.38
-0.09,0.08,1.03,3.01,0.42,2.8
-0.08,0.09,1.04,2.87,-0.21,3.57
-0.08,0.09,1.03,2.73,-0.07,3.22
-0.08,0.1,1.03,2.45,0.7,3.85
-0.09,0.1,1.02,1.82,0.7,4.48
-0.09,0.11,1.02,1.26,-0.42,4.41
-0.09,0.11,1.03,0.91,-1.05,4.13
-0.09,0.11,1.03,0.42,-1.47,4.55
-0.1,0.11,1.04,0.07,-1.96,5.74
-0.1,0.11,1.06,0.49,-2.73,6.16
-0.1,0.1,1.06,1.19,-2.59,6.44
-0.1,0.1,1.06,2.24,-1.89,7.7
-0.11,0.1,1.06,2.8,-1.89,8.75
-0.12,0.09,1.05,3.08,-2.66,9.87
-0.11,0.09,1.06,3.5,-2.66,10.36
-0.1,0.09,1.05,4.34,-2.59,10.71
-0.1,0.09,1.05,4.76,-2.66,10.85
-0.1,0.09,1.04,5.04,-2.52,10.99
-0.1,0.08,1.04,4.97,-3.01,10.92
-0.08,0.08,1.05,4.97,-1.68,10.92
-0.08,0.08,1.04,6.09,-1.26,10.57
-0.08,0.08,1.04,5.32,-0.28,10.01
-0.08,0.08,1.04,4.9,0.28,8.89
-0.08,0.07,1.03,4.83,1.19,8.89
-0.09,0.08,1.03,5.74,1.19,9.31
-0.09,0.08,1.03,6.09,0.98,9.59
-0.08,0.08,1.02,6.23,0.84,10.08
-0.08,0.09,1.01,6.02,0.7,9.94
-0.08,0.1,0.99,5.25,-0.14,10.01
-0.07,0.1,0.99,4.27,-0.98,9.73
-0.07,0.1,0.99,3.43,-1.47,9.31
-0.06,0.1,0.98,2.59,-2.1,8.96
-0.06,0.1,0.99,0.98,-2.38,8.47
-0.06,0.1,1,-0.35,-1.82,7.21
-0.06,0.09,1.02,-1.89,-1.05,6.44
-0.08,0.08,1.03,-2.17,-1.33,6.37
-0.08,0.08,1.05,-1.33,-1.4,6.16
-0.09,0.08,1.06,0.35,-1.82,6.65
-0.09,0.08,1.05,1.82,-2.24,7.28
-0.09,0.09,1.04,2.17,-2.45,7.35
-0.09,0.1,1.04,1.33,-2.03,7
-0.09,0.1,1.03,0.35,-1.12,6.58
-0.1,0.09,1.04,0.28,-1.26,6.37
-0.1,0.09,1.04,0.91,-1.82,6.86
-0.09,0.09,1.03,1.82,-1.75,7
-0.09,0.09,1.03,1.82,-0.91,7.21
-0.09,0.1,1.02,0.84,-0.91,7
-0.09,0.1,1.01,-0.07,-1.05,6.79
-0.08,0.09,1.02,-0.49,-1.12,6.79
-0.08,0.09,1.02,-0.56,-0.77,6.23
-0.08,0.09,1.03,-0.63,-0.77,5.81
-0.08,0.09,1.03,-0.14,-0.91,5.11
-0.08,0.09,1.03,0.35,-0.21,5.18
-0.08,0.09,1.03,-0.07,-0.14,5.39
-0.08,0.09,1.02,-0.63,-0.77,5.32
-0.08,0.09,1.03,-1.19,-1.33,5.53
-0.08,0.09,1.03,-1.61,-1.61,5.11
-0.08,0.09,1.04,-2.03,-1.26,4.9
-0.07,0.09,1.04,-2.03,-1.05,4.62
-0.07,0.09,1.04,-1.61,-0.42,4.34
-0.07,0.09,1.04,-1.12,-0.28,4.34
-0.08,0.09,1.04,-1.12,-0.7,3.78
-0.08,0.09,1.04,-0.84,-1.47,3.5
-0.07,0.09,1.04,-1.05,-1.54,3.01
-0.07,0.09,1.04,-0.77,-1.47,2.66
-0.08,0.09,1.04,-0.77,-1.75,2.66
-0.07,0.09,1.04,-0.49,-1.82,2.1
-0.07,0.09,1.04,0.28,-1.61,1.61
-0.08,0.09,1.04,0.98,-1.82,1.12
-0.08,0.09,1.04,0.98,-1.96,1.12
-0.08,0.08,1.04,0.7,-2.31,0.49
-0.08,0.08,1.03,0.98,-2.66,0.21
-0.07,0.08,1.04,1.26,-2.38,-1.26
-0.07,0.08,1.04,1.12,-1.26,-2.38
-0.07,0.07,1.03,0.42,-0.84,-3.22
-0.06,0.07,1.03,0.42,-0.7,-3.57
-0.07,0.07,1.02,0.28,-1.12,-4.13
-0.07,0.08,1.02,0.35,-1.89,-4.9
-0.06,0.07,1.02,0.21,-2.59,-5.18
-0.06,0.08,1.02,-0.56,-2.8,-5.46
-0.06,0.08,1.02,-1.82,-3.01,-6.23
-0.06,0.07,1.03,-1.96,-3.57,-6.72
-0.06,0.07,1.04,-1.33,-4.06,-7.07
-0.06,0.08,1.04,-1.26,-4.34,-7.35
-0.06,0.08,1.04,-1.05,-4.48,-7.91
-0.06,0.08,1.04,-1.33,-4.2,-8.75
-0.06,0.08,1.03,-2.1,-4.41,-8.96
-0.07,0.09,1.04,-2.8,-4.69,-9.38
-0.07,0.09,1.04,-3.01,-4.48,-10.29
-0.08,0.09,1.04,-2.59,-4.2,-10.36
-0.09,0.09,1.04,-2.52,-4.27,-10.43
-0.09,0.09,1.04,-1.82,-4.76,-10.57
-0.09,0.09,1.03,-0.98,-4.55,-10.29
-0.09,0.09,1.04,-0.42,-4.34,-10.43
-0.09,0.09,1.03,-0.49,-3.99,-10.71
-0.1,0.1,1.02,-0.84,-3.85,-10.92
-0.1,0.1,1.02,-1.12,-3.92,-10.78
-0.1,0.09,1.02,-1.47,-3.71,-10.5
-0.1,0.09,1.02,-2.1,-3.43,-9.45
-0.11,0.09,1.03,-2.66,-3.71,-9.66
-0.11,0.09,1.04,-3.01,-3.78,-9.59
-0.11,0.08,1.05,-2.66,-4.06,-8.68
-0.1,0.08,1.05,-1.4,-3.99,-7.98
-0.1,0.08,1.06,-0.07,-2.87,-7.84
-0.1,0.09,1.05,0.91,-2.17,-7.77
-0.09,0.09,1.05,1.4,-1.82,-7.84
-0.09,0.09,1.04,1.89,-1.61,-7.49
-0.09,0.09,1.03,2.1,-2.24,-6.79
-0.08,0.08,1.03,2.31,-2.17,-6.79
-0.08,0.09,1.02,1.96,-2.03,-6.93
-0.08,0.09,1.02,0.91,-1.96,-7.14
-0.08,0.08,1.02,0.56,-1.61,-7.14
-0.08,0.08,1.02,0.77,-0.98,-6.93
-0.09,0.08,1.02,0.42,-0.7,-7
-0.09,0.08,1.02,0.35,-0.84,-6.44
-0.09,0.08,1.02,-0.21,-1.12,-6.16
-0.1,0.08,1.02,-0.56,-1.4,-5.32
-0.1,0.08,1.02,-0.56,-2.03,-4.76
-0.1,0.08,1.03,-0.28,-2.24,-4.9
-0.1,0.09,1.04,-0.35,-2.03,-4.48
-0.1,0.09,1.04,0.21,-2.1,-3.71
-0.1,0.09,1.04,0.07,-1.61,-3.01
-0.1,0.09,1.04,0.21,-1.47,-2.45
-0.11,0.09,1.04,0.42,-1.33,-2.31
-0.11,0.09,1.04,0.56,-1.47,-1.26
-0.11,0.09,1.04,1.05,-2.03,-0.77
-0.1,0.09,1.05,1.4,-1.54,-1.05
-0.1,0.1,1.05,1.4,-0.35,-1.33
-0.1,0.09,1.04,1.47,-0.35,-0.56
-0.11,0.09,1.04,2.17,-0.49,0.21
-0.1,0.09,1.04,1.89,-0.35,0.91
-0.11,0.09,1.03,1.89,-0.84,1.19
-0.1,0.09,1.04,2.66,-0.91,1.12
-0.1,0.09,1.04,2.8,0.07,1.05
-0.11,0.09,1.03,2.73,0.21,1.96
-0.11,0.08,1.02,2.1,-0.07,3.08
-0.11,0.08,1.02,1.19,-0.14,3.57
-0.1,0.08,1.03,1.33,-0.28,3.71
-0.11,0.08,1.03,1.68,-0.63,3.71
-0.1,0.08,1.03,1.82,-0.21,3.99
-0.11,0.08,1.02,1.33,0.07,4.83
-0.11,0.08,1.02,0.84,-0.14,6.23
-0.11,0.08,1.03,0.35,-0.14,6.93
-0.1,0.08,1.03,0.56,-0.42,7.21
-0.1,0.08,1.04,0.49,-0.42,6.86
-0.1,0.08,1.03,0.49,-0.91,7.56
-0.11,0.08,1.03,0.35,-1.75,8.19
-0.1,0.08,1.04,-0.07,-1.61,8.4
-0.1,0.08,1.04,-0.07,-1.26,7.84
-0.1,0.08,1.04,0.07,-0.7,8.12
-0.1,0.08,1.05,0.84,-0.28,8.12
-0.1,0.08,1.05,1.61,0.28,8.05
-0.11,0.08,1.04,2.38,-0.07,8.75
-0.11,0.08,1.03,2.38,-0.63,9.24
-0.1,0.09,1.03,1.89,-0.98,9.03
-0.1,0.08,1.03,1.82,-0.84,8.68
-0.11,0.08,1.03,1.82,-1.12,8.96
-0.1,0.09,1.02,1.05,-1.26,9.45
-0.1,0.08,1.03,1.12,-1.61,9.87
-0.1,0.08,1.02,0.98,-1.4,9.87
-0.1,0.08,1.03,1.05,-1.05,9.31
-0.1,0.08,1.03,0.84,-0.35,8.68
-0.11,0.08,1.02,0.35,-0.49,9.1
-0.11,0.08,1.03,0.21,-0.63,9.45
-0.11,0.07,1.03,-0.21,-0.28,9.73
-0.11,0.08,1.03,-0.49,-0.21,10.43
-0.12,0.07,1.03,-0.42,-0.28,10.71
-0.12,0.07,1.04,0.56,-0.91,10.71
-0.11,0.07,1.03,1.47,-1.12,10.85
-0.11,0.08,1.03,1.54,-1.33,11.41
-0.11,0.08,1.02,0.98,-1.26,12.04
-0.1,0.08,1.02,0,-1.19,12.11
-0.11,0.08,1.03,-1.05,-1.26,12.04
-0.1,0.08,1.03,-1.4,-1.47,11.83
-0.1,0.07,1.04,-0.21,-1.33,11.83
-0.11,0.07,1.04,0.49,-1.33,11.76
-0.1,0.07,1.04,0.35,-1.4,11.9
-0.1,0.07,1.04,0.84,-1.68,11.27
-0.1,0.08,1.04,1.26,-1.26,11.06
-0.1,0.07,1.04,1.75,-1.47,10.64
-0.1,0.07,1.04,2.17,-1.4,10.29
-0.09,0.07,1.04,3.01,-1.54,10.5
-0.09,0.08,1.04,2.87,-1.19,10.5
-0.1,0.08,1.03,2.38,-1.26,10.36
-0.1,0.08,1.03,2.31,-1.47,9.8
-0.1,0.08,1.03,1.96,-1.89,9.38
-0.1,0.08,1.03,1.89,-2.17,9.03
-0.1,0.08,1.03,1.12,-1.82,8.68
-0.1,0.08,1.04,1.05,-1.61,8.96
-0.11,0.08,1.04,1.61,-1.96,8.96
-0.1,0.07,1.04,1.89,-2.31,8.82
-0.1,0.07,1.04,2.73,-2.24,9.24
-0.1,0.07,1.04,3.22,-2.94,9.31
-0.1,0.07,1.04,3.64,-3.22,9.1
-0.09,0.07,1.03,3.99,-3.01,8.54
-0.09,0.08,1.03,4.27,-2.31,8.05
-0.09,0.08,1.02,3.22,-1.96,7.63
-0.09,0.08,1.02,2.52,-1.82,6.37
-0.1,0.08,1.02,2.17,-1.12,6.09
-0.1,0.08,1.02,0.91,-1.4,5.74
-0.11,0.08,1.02,0.49,-2.24,5.6
-0.1,0.08,1.03,0.63,-2.66,5.67
-0.1,0.08,1.03,0.49,-2.45,5.67
-0.1,0.08,1.03,0.28,-2.73,5.95
-0.1,0.08,1.03,-0.07,-2.66,6.02
-0.09,0.09,1.04,0.07,-2.31,5.74
-0.09,0.09,1.03,-0.07,-2.17,5.25
-0.09,0.09,1.04,-0.14,-2.1,4.62
-0.09,0.09,1.03,0,-1.89,3.99
-0.1,0.09,1.03,0.14,-2.52,4.55
-0.11,0.08,1.04,0.28,-3.29,4.41
-0.1,0.08,1.04,0.91,-3.29,5.04
-0.1,0.08,1.04,0.98,-2.8,5.46
-0.11,0.08,1.03,1.05,-3.29,5.6
-0.11,0.08,1.03,1.33,-3.36,5.6
-0.1,0.08,1.03,1.61,-3.22,5.88
-0.1,0.08,1.02,1.12,-2.17,5.53
-0.09,0.08,1.01,0.14,-2.17,4.83
-0.09,0.07,1.02,0.21,-2.31,4.06
-0.09,0.08,1.02,0.42,-1.96,3.78
-0.09,0.07,1.02,0.56,-1.82,3.57
-0.09,0.08,1.01,-0.28,-1.82,3.01
-0.08,0.08,1.02,-1.19,-2.03,2.31
-0.08,0.08,1.03,-1.75,-1.75,1.89
-0.08,0.08,1.03,-0.91,-1.82,1.96
-0.08,0.08,1.03,-0.84,-1.89,1.61
-0.08,0.09,1.04,-0.56,-1.96,1.05
-0.08,0.09,1.03,-0.56,-1.68,0.42
-0.09,0.1,1.03,-0.49,-1.61,0.35
-0.09,0.1,1.04,-0.28,-1.33,0.14
-0.09,0.1,1.03,0.21,-1.26,-0.07
-0.09,0.1,1.03,0.63,-1.33,0.07
-0.09,0.11,1.03,0.35,-1.47,-0.21
-0.1,0.11,1.03,0.42,-1.54,0.07
-0.1,0.11,1.03,0.21,-1.75,-0.28
-0.1,0.11,1.04,0.35,-1.82,-0.98
-0.11,0.1,1.04,0.49,-1.33,-0.77
-0.12,0.1,1.04,1.05,-1.89,0
-0.11,0.1,1.05,2.1,-2.17,0.07
-0.11,0.1,1.05,2.24,-1.33,0.21
-0.12,0.1,1.05,2.59,-1.4,0.56
-0.12,0.1,1.04,3.43,-1.89,1.47
-0.11,0.1,1.03,4.83,-2.45,1.89
-0.11,0.1,1.02,4.34,-1.89,1.61
-0.11,0.1,1.01,3.5,-1.68,1.89
-0.11,0.1,1.02,2.17,-1.61,1.75
-0.11,0.1,1.02,2.1,-1.4,2.1
-0.11,0.09,1.02,1.96,-1.61,2.38
-0.11,0.09,1.02,1.68,-2.1,2.24
-0.11,0.09,1.02,1.68,-1.89,2.38
-0.11,0.09,1.03,1.61,-1.54,2.52
-0.11,0.09,1.03,0.98,-1.33,2.38
-0.11,0.09,1.03,1.47,-1.19,2.31
-0.11,0.09,1.04,2.31,-0.84,2.24
-0.11,0.09,1.03,2.52,-0.49,2.52
-0.11,0.09,1.02,2.31,-0.63,2.73
-0.11,0.09,1.03,1.82,-1.05,2.03
-0.1,0.09,1.03,1.61,-1.33,2.1
-0.1,0.1,1.03,1.4,-1.33,1.96
-0.1,0.1,1.03,0.77,-0.7,1.47
-0.11,0.1,1.03,0.21,-0.42,1.33
-0.11,0.09,1.03,-0.14,-0.84,1.61
-0.11,0.09,1.03,0.77,-1.47,1.47
-0.11,0.09,1.03,1.68,-1.33,1.4
-0.11,0.1,1.03,1.33,-0.63,1.05
-0.12,0.1,1.03,0.35,-0.63,1.4
-0.12,0.09,1.03,0.7,-1.33,1.54
-0.11,0.09,1.03,1.75,-1.4,1.82
-0.11,0.09,1.03,1.82,-0.98,1.68
-0.11,0.1,1.02,0.63,-0.84,1.33
-0.11,0.09,1.02,0,-1.26,1.33
-0.12,0.09,1.02,-0.14,-1.75,1.47
-0.12,0.09,1.03,0.07,-1.82,1.75
-0.11,0.09,1.03,-0.21,-1.47,1.33
-0.11,0.09,1.04,-0.21,-0.49,0.84
-0.12,0.09,1.04,-0.07,-0.56,1.47
-0.13,0.09,1.03,0.84,-1.54,2.03
-0.12,0.09,1.03,1.26,-2.1,2.52
-0.12,0.09,1.02,1.26,-2.24,2.94
-0.11,0.1,1.02,0.77,-2.38,2.38
-0.11,0.09,1.02,0.42,-2.66,1.89
-0.1,0.09,1.03,0.77,-2.52,1.33
-0.1,0.1,1.03,0.49,-1.89,0.98
-0.11,0.09,1.03,-0.28,-1.82,0.56
-0.11,0.09,1.04,0.14,-1.89,0.56
-0.11,0.09,1.04,0.35,-1.96,0.28
-0.11,0.1,1.04,0.77,-1.96,0
-0.11,0.09,1.04,1.33,-2.59,0.42
-0.11,0.09,1.04,2.03,-2.87,0.56
-0.12,0.1,1.04,2.03,-2.87,0.7
-0.12,0.1,1.04,2.17,-2.87,0.77
-0.12,0.09,1.04,2.8,-2.87,0.98
-0.12,0.1,1.03,3.22,-2.73,1.33
-0.12,0.1,1.03,2.59,-3.29,1.47
-0.12,0.1,1.02,1.75,-3.78,1.26
-0.11,0.09,1.03,0.91,-3.85,0.91
-0.12,0.09,1.02,0.56,-4.06,0.77
-0.11,0.08,1.03,1.54,-3.99,0.21
-0.11,0.09,1.03,2.52,-3.01,0.35
-0.12,0.09,1.03,2.31,-2.87,0.42
-0.12,0.09,1.03,2.24,-3.08,0.28
-0.12,0.08,1.03,2.66,-3.36,0.49
-0.11,0.09,1.03,2.45,-3.15,0.56
-0.11,0.09,1.02,2.03,-3.43,0.63
-0.11,0.09,1.02,1.54,-4.06,0.35
-0.11,0.09,1.03,1.47,-4.27,0.49
-0.1,0.09,1.02,1.47,-4.06,0.35
-0.1,0.1,1.03,1.47,-3.57,-0.21
-0.1,0.1,1.02,0.77,-3.43,-0.98
-0.1,0.1,1.03,0.07,-3.71,-1.33
-0.1,0.09,1.03,-0.35,-3.85,-1.68
-0.1,0.09,1.04,0.42,-4.48,-1.68
-0.1,0.09,1.04,0.91,-4.48,-2.1
-0.11,0.09,1.04,0.77,-4.76,-2.17
-0.11,0.09,1.04,1.33,-4.83,-1.89
-0.1,0.09,1.04,2.45,-4.69,-1.68
-0.1,0.09,1.04,3.01,-3.57,-2.03
-0.1,0.09,1.03,2.73,-2.24,-2.66
-0.11,0.09,1.03,2.59,-2.52,-2.59
-0.11,0.09,1.03,2.66,-3.43,-2.45
-0.11,0.09,1.02,2.73,-4.2,-1.96
-0.11,0.09,1.02,2.31,-4.62,-1.68
-0.1,0.1,1.02,1.05,-4.48,-2.17
-0.11,0.09,1.02,-0.28,-3.78,-2.87
-0.11,0.09,1.02,-0.21,-3.85,-2.8
-0.11,0.09,1.03,0,-4.06,-2.52
-0.11,0.09,1.03,0,-4.41,-1.75
-0.11,0.09,1.03,-0.21,-5.11,-2.45
-0.09,0.09,1.04,1.19,-3.99,-3.5
-0.09,0.09,1.04,1.89,-2.38,-4.06
-0.1,0.1,1.04,1.68,-2.03,-3.71
-0.11,0.09,1.04,1.96,-2.87,-3.57
-0.1,0.09,1.03,2.66,-3.57,-2.59
-0.1,0.1,1.03,2.38,-4.13,-2.45
-0.1,0.1,1.03,1.4,-4.76,-3.22
-0.09,0.1,1.04,1.68,-4.2,-4.55
-0.1,0.1,1.04,1.47,-3.29,-5.11
-0.1,0.09,1.04,1.96,-2.94,-4.27
-0.11,0.09,1.03,2.59,-3.64,-3.36
-0.11,0.09,1.02,2.87,-4.41,-2.52
-0.1,0.1,1.03,2.52,-4.83,-3.01
-0.09,0.1,1.04,2.45,-3.36,-4.97
-0.09,0.1,1.04,2.59,-2.45,-5.67
-0.1,0.09,1.03,3.08,-2.38,-4.55
-0.11,0.09,1.03,3.29,-2.8,-3.64
-0.1,0.1,1.02,3.15,-3.29,-3.08
-0.1,0.1,1.02,2.24,-3.71,-2.8
-0.11,0.1,1.02,1.33,-4.69,-3.22
-0.1,0.1,1.03,0.98,-4.2,-3.85
-0.1,0.09,1.03,1.68,-2.94,-4.9
-0.1,0.09,1.03,2.03,-2.38,-4.2
-0.11,0.1,1.03,2.1,-2.73,-3.36
-0.1,0.1,1.03,2.17,-2.94,-3.01
-0.1,0.09,1.03,1.82,-3.22,-3.22
-0.1,0.1,1.03,2.24,-3.99,-3.01
-0.1,0.1,1.03,2.24,-4.34,-2.94
-0.09,0.1,1.03,2.59,-3.57,-3.01
-0.09,0.1,1.03,2.59,-2.94,-3.08
-0.08,0.1,1.03,2.8,-2.1,-4.06
-0.08,0.1,1.04,2.8,-1.19,-4.55
-0.1,0.1,1.03,2.73,-1.54,-4.13
-0.1,0.1,1.03,3.01,-2.52,-3.64
-0.09,0.1,1.03,2.94,-2.87,-3.71
-0.09,0.1,1.03,2.87,-3.08,-3.57
-0.09,0.1,1.02,2.17,-3.15,-3.64
-0.09,0.1,1.02,1.96,-3.22,-3.85
-0.09,0.1,1.02,1.19,-2.73,-3.99
-0.1,0.1,1.02,1.19,-2.8,-3.64
-0.1,0.1,1.02,1.12,-3.36,-3.22
-0.09,0.1,1.03,0.98,-2.73,-3.71
-0.1,0.09,1.04,1.19,-2.17,-3.85
-0.11,0.09,1.03,1.89,-2.8,-2.8
-0.1,0.1,1.03,1.75,-3.22,-1.96
-0.1,0.1,1.03,1.68,-2.66,-1.61
-0.1,0.1,1.02,0.56,-1.96,-1.96
-0.1,0.1,1.02,-0.07,-2.17,-2.38
-0.1,0.09,1.03,0.28,-3.15,-1.54
-0.1,0.09,1.03,1.12,-3.85,-0.84
-0.09,0.1,1.02,1.05,-4.06,-0.56
-0.08,0.1,1.04,1.05,-3.22,-2.03
-0.07,0.1,1.04,0.63,-0.84,-3.43
-0.08,0.1,1.04,0.7,-0.63,-3.57
-0.1,0.1,1.03,0.56,-1.54,-3.01
-0.1,0.1,1.04,0.56,-2.66,-2.03
-0.1,0.1,1.04,0.98,-3.22,-1.47
-0.1,0.1,1.04,0.56,-3.78,-1.96
-0.1,0.1,1.04,0.49,-3.85,-2.1
-0.1,0.09,1.04,1.26,-3.22,-1.26
-0.1,0.09,1.03,1.75,-3.08,-0.42
-0.1,0.1,1.02,1.68,-3.22,0.07
-0.09,0.1,1.02,1.19,-3.71,-0.35
-0.08,0.1,1.03,1.33,-3.01,-1.96
-0.08,0.1,1.03,1.12,-1.68,-3.36
-0.1,0.09,1.03,1.33,-2.03,-2.73
-0.1,0.09,1.03,1.61,-3.29,-1.33
-0.09,0.09,1.02,1.75,-3.29,-0.84
-0.09,0.09,1.02,0.77,-2.73,-1.26
-0.09,0.1,1.02,0.28,-3.08,-1.96
-0.09,0.09,1.03,0,-3.36,-2.66
-0.09,0.09,1.03,0.21,-3.15,-2.73
-0.09,0.1,1.04,0.07,-2.8,-2.17
-0.09,0.09,1.04,0.21,-2.45,-2.24
-0.08,0.1,1.05,1.26,-1.96,-3.08
-0.1,0.1,1.04,1.89,-2.38,-2.87
-0.1,0.1,1.03,1.82,-3.43,-2.24
-0.09,0.11,1.02,1.26,-4.2,-1.54
-0.09,0.11,1.02,0.07,-4.41,-1.19
-0.09,0.1,1.04,0.28,-4.13,-2.52
-0.08,0.1,1.05,0.98,-2.38,-4.34
-0.1,0.09,1.05,2.03,-1.82,-4.13
-0.11,0.09,1.05,3.01,-2.66,-2.31
-0.1,0.1,1.04,3.57,-3.5,-1.26
-0.09,0.1,1.04,3.78,-3.15,-0.84
-0.09,0.09,1.04,4.13,-3.22,-2.17
-0.08,0.09,1.04,5.53,-2.73,-2.31
-0.1,0.13,1.03,3.64,-2.45,-3.43
-0.09,0.09,1.02,2.94,-2.52,-2.52
