Accel_x,Accel_y,Accel_z,Gyr_x,Gyr_y,Gyr_z
0.01,-0.06,1,-2.52,-1.54,7.77
0,-0.04,0.99,-4.27,-2.24,7.07
0.01,-0.03,0.99,-5.67,-2.87,6.37
0.01,-0.03,0.99,-6.51,-3.57,5.32
0.01,-0.03,1,-6.72,-3.99,4.55
0,-0.02,1,-7.28,-4.06,3.36
0,-0.02,1.01,-7.42,-4.13,1.75
0,-0.02,1.01,-7.84,-3.92,0.63
-0.01,-0.02,1.01,-8.12,-3.85,-0.42
-0.01,-0.03,1.02,-8.19,-3.29,-1.47
-0.01,-0.04,1.02,-7.63,-3.15,-2.8
-0.01,-0.05,1.02,-7.07,-3.08,-3.92
-0.01,-0.05,1.03,-7.7,-2.45,-5.11
-0.02,-0.07,1.03,-7.7,-2.17,-6.02
-0.03,-0.08,1.04,-7.28,-1.75,-6.93
-0.04,-0.08,1.04,-7.56,-1.12,-7.42
-0.04,-0.08,1.04,-7.21,-0.98,-8.05
-0.04,-0.08,1.04,-6.72,-0.91,-8.61
-0.05,-0.08,1.04,-7.21,-0.77,-9.17
-0.05,-0.09,1.03,-6.93,-1.12,-9.52
-0.05,-0.09,1.03,-6.3,-1.89,-9.59
-0.06,-0.1,1.03,-6.72,-2.52,-9.38
-0.06,-0.11,1.03,-6.79,-3.43,-9.1
-0.06,-0.12,1.03,-6.93,-4.34,-8.4
-0.06,-0.14,1.03,-7.7,-5.18,-7.35
-0.07,-0.15,1.03,-7.42,-6.44,-6.16
-0.07,-0.15,1.05,-6.16,-7.14,-5.04
-0.08,-0.14,1.07,-5.88,-7,-3.43
-0.09,-0.13,1.08,-5.04,-6.16,-2.24
-0.1,-0.12,1.08,-4.76,-5.32,-0.84
-0.1,-0.11,1.08,-5.32,-4.34,0.28
-0.1,-0.12,1.07,-4.76,-3.85,1.89
-0.09,-0.13,1.06,-4.13,-3.43,3.08
-0.09,-0.13,1.06,-3.01,-3.22,4.27
-0.09,-0.13,1.06,-1.61,-3.43,6.3
-0.09,-0.12,1.06,-0.77,-3.08,7.98
-0.09,-0.12,1.06,-1.05,-2.66,9.73
-0.09,-0.12,1.05,-1.26,-2.87,11.34
-0.09,-0.12,1.05,-1.26,-3.15,13.58
-0.08,-0.13,1.05,-1.26,-2.94,15.26
-0.08,-0.11,1.04,-0.28,-3.29,17.08
-0.08,-0.14,1.04,-0.98,-2.45,19.53
-0.09,-0.14,1.03,2.1,-3.36,21.35
-0.06,-0.12,1.04,1.12,-2.52,23.17
-0.06,-0.12,1.03,0,-1.75,24.99
-0.06,-0.13,1.02,0.91,-2.24,26.74
-0.04,-0.11,1.03,0.77,-1.54,27.86
-0.04,-0.12,1.02,-0.21,-1.26,28.98
-0.04,-0.12,1.01,1.19,-2.24,30.66
-0.04,-0.12,1.02,1.12,-2.38,32.27
-0.04,-0.11,1.01,0.49,-2.52,33.95
-0.04,-0.12,1.01,0.63,-3.57,35.91
-0.03,-0.12,1.01,0.14,-3.92,38.78
-0.03,-0.12,1.01,-0.63,-4.55,41.23
-0.02,-0.12,1.01,-0.21,-5.46,43.68
-0.01,-0.12,1.02,-0.98,-5.95,46.34
-0.01,-0.13,1.02,-1.05,-7.35,48.44
0.01,-0.13,1.04,0.28,-8.54,50.26
0.02,-0.11,1.06,-0.42,-8.54,52.08
0.02,-0.11,1.07,-0.14,-8.68,53.62
0.02,-0.09,1.08,0.91,-8.75,54.74
0.02,-0.08,1.09,0.7,-7.77,55.23
0.02,-0.08,1.08,1.82,-7.28,55.44
0.02,-0.07,1.08,3.5,-6.79,54.95
0.02,-0.06,1.07,3.43,-5.53,54.32
0.02,-0.07,1.04,3.85,-5.25,54.11
0.02,-0.06,1.03,4.41,-5.53,53.06
0.01,-0.05,1.02,2.31,-4.83,52.57
0.01,-0.07,0.99,0.77,-5.32,52.36
0,-0.08,0.99,0.49,-6.44,52.29
0,-0.09,1,-1.05,-6.79,52.92
-0.01,-0.1,0.98,-2.66,-7.77,53.55
-0.01,-0.11,0.99,-3.64,-8.54,54.81
-0.01,-0.12,0.99,-4.97,-9.24,56.49
-0.01,-0.12,1.01,-6.02,-9.73,57.96
-0.01,-0.12,1.02,-7.07,-10.08,59.01
0,-0.11,1.04,-7.63,-9.87,59.71
0.01,-0.1,1.05,-7.98,-9.38,60.2
0.01,-0.11,1.06,-7.84,-9.03,60.13
0.02,-0.1,1.07,-7.35,-8.68,59.85
0.02,-0.11,1.07,-6.51,-8.26,59.22
0.03,-0.11,1.08,-5.6,-7.49,58.66
0.03,-0.12,1.08,-3.92,-7,57.89
0.03,-0.11,1.08,-3.01,-6.23,57.26
0.02,-0.12,1.08,-2.1,-5.18,56.91
0.02,-0.12,1.07,-1.82,-4.27,56.77
0.02,-0.13,1.05,-1.47,-3.99,56.63
0.01,-0.14,1.04,-0.56,-4.06,56.49
0.01,-0.15,1.03,0.56,-4.34,56.49
0.01,-0.15,1.02,2.03,-4.76,57.05
0.02,-0.15,1.01,2.73,-5.18,56.98
0.02,-0.15,1.01,3.22,-5.6,57.12
0.02,-0.14,1.02,3.22,-5.6,57.19
0.02,-0.14,1.03,3.71,-5.39,56.91
0.02,-0.12,1.03,3.57,-4.62,56.7
0.02,-0.13,1.02,2.8,-3.64,56.14
0.01,-0.15,1,4.2,-3.99,55.65
0.02,-0.14,1,4.48,-3.78,54.95
0.02,-0.15,1,4.06,-3.5,54.25
0.02,-0.15,0.99,5.04,-4.06,53.48
0.02,-0.13,1,3.64,-3.85,52.64
0.01,-0.14,0.99,2.24,-3.64,52.15
0.01,-0.14,0.99,2.1,-4.69,51.45
0.01,-0.13,1,0.28,-4.62,50.82
0.01,-0.15,0.99,-0.42,-4.97,50.33
0.01,-0.15,0.99,0.21,-5.81,49.7
0.01,-0.14,0.99,-0.14,-6.3,49.42
0.01,-0.14,1,-0.77,-6.86,48.72
0.02,-0.13,1.01,-1.12,-7.14,48.02
0.02,-0.13,1.02,-2.31,-7.14,47.39
0.01,-0.13,1.03,-2.52,-7.07,46.83
0.02,-0.13,1.04,-2.24,-6.51,45.99
0.01,-0.14,1.04,-2.1,-5.88,45.29
0.01,-0.15,1.04,-0.77,-5.6,44.66
0.02,-0.14,1.04,0.14,-5.11,44.38
0.01,-0.14,1.04,-0.14,-4.55,43.96
0.01,-0.14,1.04,0,-4.27,43.33
0.01,-0.14,1.04,-0.21,-3.57,42.98
0,-0.15,1.04,0.35,-3.08,42.63
0,-0.14,1.04,0.84,-2.87,42.21
0,-0.14,1.03,0.77,-2.17,41.58
0,-0.14,1.02,1.05,-2.45,41.51
0,-0.14,1.02,0.84,-2.66,40.53
0,-0.13,1.02,0.21,-2.73,39.97
0,-0.13,1.01,-0.07,-3.29,39.34
0,-0.13,1,-0.91,-3.71,38.64
-0.01,-0.13,1,-1.33,-4.27,37.8
-0.01,-0.13,1,-1.19,-4.97,36.96
-0.01,-0.12,1.01,-1.89,-5.39,35.91
-0.01,-0.12,1,-3.15,-5.6,34.58
-0.01,-0.12,1,-3.71,-6.51,33.67
-0.01,-0.11,1.01,-4.13,-6.72,32.2
-0.01,-0.11,1.01,-4.83,-6.58,30.94
-0.01,-0.11,1.01,-4.06,-6.72,29.12
-0.01,-0.11,1.02,-4.2,-6.44,27.37
-0.02,-0.11,1.01,-4.9,-6.37,26.11
-0.02,-0.11,1.02,-4.55,-6.3,24.29
-0.02,-0.11,1.03,-5.04,-5.67,22.82
-0.02,-0.11,1.04,-5.81,-5.11,21.14
-0.03,-0.11,1.06,-5.39,-4.62,19.6
-0.03,-0.11,1.09,-4.34,-3.71,17.92
-0.03,-0.11,1.12,-3.43,-2.17,16.1
-0.04,-0.11,1.14,-1.75,-0.28,14.63
-0.06,-0.09,1.17,-0.42,1.82,12.6
-0.07,-0.07,1.18,0.91,4.69,10.99
-0.07,-0.06,1.17,0.35,7.14,9.17
-0.07,-0.07,1.13,1.33,7.91,7.42
-0.07,-0.07,1.12,2.73,7.56,4.55
-0.06,-0.07,1.1,2.52,6.93,2.45
-0.07,-0.08,1.09,3.22,5.74,0.7
-0.08,-0.09,1.09,3.92,4.27,-0.63
-0.09,-0.09,1.1,3.92,3.29,-1.12
-0.1,-0.09,1.1,4.41,2.73,-1.26
-0.11,-0.09,1.1,3.78,2.66,-0.77
-0.12,-0.1,1.09,4.06,2.52,-0.42
-0.12,-0.09,1.09,4.2,2.59,0.07
-0.13,-0.08,1.07,3.64,3.01,0.35
-0.14,-0.08,1.05,3.43,3.08,1.12
-0.14,-0.08,1.04,3.36,3.64,1.47
-0.15,-0.07,1.02,3.36,3.78,1.75
-0.14,-0.06,0.99,2.38,3.85,1.75
-0.14,-0.06,0.96,1.12,3.29,0.98
-0.13,-0.05,0.95,0.56,1.26,0.07
-0.12,-0.04,0.95,-2.24,0.35,-1.26
-0.12,-0.04,0.95,-4.34,-0.91,-2.59
-0.13,-0.05,0.96,-4.83,-2.73,-3.43
-0.13,-0.06,0.96,-6.51,-3.5,-3.5
-0.15,-0.08,0.96,-7,-4.62,-3.22
-0.15,-0.09,0.96,-7.28,-5.88,-2.24
-0.15,-0.1,0.96,-8.75,-6.72,-0.63
-0.15,-0.12,0.96,-10.92,-7.91,1.4
-0.15,-0.15,0.98,-11.13,-9.17,4.27
-0.15,-0.16,1.01,-10.71,-9.8,7.21
-0.15,-0.16,1.03,-9.31,-9.73,10.22
-0.15,-0.15,1.05,-9.17,-9.17,13.09
-0.14,-0.15,1.05,-8.12,-8.47,16.52
-0.13,-0.14,1.06,-7.07,-7.91,18.76
-0.11,-0.14,1.05,-7.56,-7.07,20.58
-0.1,-0.16,1.03,-6.58,-7.21,22.54
-0.1,-0.17,1.02,-4.48,-7.56,23.87
-0.08,-0.16,1.02,-2.73,-7.91,24.57
-0.08,-0.16,1.01,-1.33,-8.47,25.06
-0.07,-0.15,1.02,-0.21,-9.03,25.06
-0.07,-0.14,1.02,0.14,-9.17,24.64
-0.07,-0.14,1.03,1.12,-9.03,24.5
-0.07,-0.14,1.04,2.52,-8.68,24.15
-0.09,-0.13,1.05,4.55,-7.84,23.94
-0.09,-0.12,1.05,7.14,-6.65,23.87
-0.09,-0.1,1.04,7,-5.81,23.38
-0.09,-0.12,1.01,7.77,-5.32,22.82
-0.09,-0.11,1,9.03,-5.74,22.54
-0.09,-0.11,0.98,7.91,-5.81,21.84
-0.09,-0.12,0.95,8.12,-6.65,21.84
-0.09,-0.12,0.94,9.38,-8.54,21.77
-0.08,-0.11,0.95,8.89,-9.24,21.98
-0.08,-0.11,0.95,7.98,-9.73,21.98
-0.09,-0.11,0.96,8.19,-10.64,22.33
-0.08,-0.09,0.98,6.51,-10.15,22.68
-0.08,-0.1,0.98,3.5,-9.59,22.96
-0.1,-0.12,0.97,3.5,-9.73,23.38
-0.09,-0.13,0.98,3.5,-9.17,24.29
-0.08,-0.13,0.97,3.57,-8.05,24.99
-0.08,-0.14,0.97,4.62,-7.91,25.41
-0.07,-0.12,0.97,3.78,-7.21,25.76
-0.07,-0.11,0.97,2.45,-6.23,25.9
-0.07,-0.11,0.98,1.19,-5.81,25.41
-0.06,-0.11,0.98,-0.56,-4.55,24.85
-0.06,-0.12,0.97,-0.35,-4.27,24.29
-0.06,-0.12,0.98,0.35,-3.64,23.52
-0.05,-0.12,0.98,0.56,-2.66,22.68
-0.06,-0.13,0.98,1.4,-2.31,22.05
-0.05,-0.12,1,1.19,-1.33,21.35
-0.05,-0.11,0.99,-0.49,-0.28,20.23
-0.05,-0.12,0.98,-0.35,-0.07,19.46
-0.05,-0.12,0.99,-0.77,0.35,18.69
-0.06,-0.13,0.98,-0.49,0.49,18.06
-0.06,-0.13,0.97,0.21,0.63,17.36
-0.07,-0.13,0.97,-17.92,0.7,17.29
-0.08,-0.14,0.97,0.28,0.42,17.29
-0.08,-0.15,0.98,-0.49,0.56,17.43
-0.09,-0.15,0.99,-0.98,0.91,17.5
-0.1,-0.15,1,-1.47,1.19,17.64
-0.1,-0.14,0.99,-2.31,1.4,17.57
-0.09,-0.14,0.98,-3.22,1.05,17.01
-0.09,-0.14,0.98,-2.52,0.14,16.24
-0.09,-0.13,1.01,-1.68,-0.98,15.33
-0.09,-0.12,1.03,-1.12,-1.19,14.49
-0.08,-0.11,1.04,0.14,-1.96,13.44
-0.08,-0.1,1.06,0.77,-3.08,12.53
-0.09,-0.11,1.09,-0.28,-3.43,11.9
-0.1,-0.12,1.11,-0.07,-4.06,12.18
-0.11,-0.12,1.14,0.91,-4.97,12.81
-0.11,-0.14,1.15,0.28,-4.97,13.86
-0.11,-0.18,1.13,0.7,-6.23,15.4
-0.09,-0.19,1.12,2.31,-8.61,16.8
-0.07,-0.19,1.13,0.63,-10.57,18.76
-0.05,-0.22,1.14,-0.7,-13.86,19.74
-0.05,-0.21,1.18,0.56,-16.31,20.58
-0.06,-0.16,1.26,1.12,-16.24,21.7
-0.09,-0.14,1.31,-0.42,-15.12,21.28
-0.11,-0.09,1.29,1.89,-12.18,20.44
-0.13,-0.04,1.29,3.15,-10.01,19.18
-0.14,-0.02,1.27,3.92,-6.44,17.36
-0.15,0,1.2,5.46,-4.13,15.47
-0.14,0.01,1.15,5.18,-3.43,13.79
-0.13,-0.01,1.06,2.59,-4.06,11.9
-0.13,-0.05,1,1.33,-7.28,9.94
-0.12,-0.08,0.97,-0.14,-11.69,9.31
-0.12,-0.1,0.95,-3.36,-15.75,9.38
-0.12,-0.13,0.95,-5.67,-20.02,10.5
-0.12,-0.13,0.98,-8.4,-24.29,12.32
-0.12,-0.14,1,-13.16,-26.18,14.35
-0.12,-0.14,1.01,-15.89,-27.51,16.59
-0.12,-0.14,1.01,-17.99,-28.28,19.11
-0.1,-0.14,1.02,-19.88,-28.28,20.58
-0.09,-0.14,1.02,-19.74,-28.14,21.56
-0.08,-0.12,1.04,-19.11,-27.09,21.7
-0.07,-0.08,1.05,-18.34,-24.78,20.72
-0.05,-0.05,1.06,-17.99,-22.19,18.76
-0.05,-0.03,1.06,-17.43,-19.81,16.1
-0.03,-0.02,1.05,-15.75,-17.15,12.18
-0.02,-0.02,1.05,-14.35,-13.86,8.47
-0.01,-0.02,1.03,-10.57,-11.48,4.9
-0.01,-0.02,1.01,-8.05,-9.38,1.12
-0.01,-0.03,1,-6.23,-7.07,-1.54
-0.01,-0.03,0.98,-5.6,-5.53,-3.5
-0.02,-0.04,0.95,-5.74,-4.34,-4.83
-0.03,-0.06,0.93,-5.67,-3.64,-5.32
-0.03,-0.09,0.92,-5.04,-3.22,-5.04
-0.03,-0.11,0.92,-2.03,-3.29,-4.2
-0.04,-0.1,0.93,-0.21,-3.15,-3.01
-0.04,-0.08,0.94,0.42,-2.59,-2.17
-0.04,-0.06,0.94,-0.77,-2.03,-1.4
-0.04,-0.06,0.94,-1.96,-1.4,-1.12
-0.04,-0.07,0.94,-1.82,-1.12,-1.26
-0.03,-0.08,0.94,-0.49,-0.84,-2.03
-0.04,-0.08,0.95,1.54,-0.07,-2.87
-0.04,-0.08,0.95,4.13,0.35,-4.41
-0.03,-0.05,0.96,5.18,1.19,-6.23
-0.03,-0.04,0.98,3.57,2.38,-8.75
-0.03,-0.06,0.98,2.94,2.94,-11.97
-0.03,-0.07,1,4.27,3.5,-14.77
-0.04,-0.08,1.03,6.37,4.48,-17.57
-0.06,-0.1,1.06,9.59,6.02,-20.86
-0.08,-0.1,1.08,12.88,8.33,-22.75
-0.09,-0.08,1.1,15.68,10.5,-24.36
-0.1,-0.08,1.11,15.26,13.16,-25.69
-0.11,-0.1,1.1,14.7,15.61,-27.3
-0.12,-0.12,1.09,15.54,16.94,-28.28
-0.11,-0.13,1.08,17.01,17.57,-28.91
-0.11,-0.16,1.06,17.85,17.64,-29.75
-0.11,-0.16,1.04,19.46,16.59,-30.38
-0.11,-0.14,1.05,20.72,14.91,-31.36
-0.1,-0.11,1.07,18.62,14.07,-33.04
-0.11,-0.1,1.07,16.94,13.02,-34.86
-0.11,-0.08,1.07,15.68,11.62,-36.96
-0.12,-0.08,1.07,14,11.13,-39.55
-0.13,-0.08,1.05,14,9.52,-41.86
-0.14,-0.09,1.06,15.61,8.05,-43.68
-0.15,-0.09,1.07,15.82,7.84,-45.29
-0.16,-0.08,1.07,17.08,7.56,-45.85
-0.17,-0.07,1.08,16.59,8.19,-46.48
-0.17,-0.06,1.05,14.91,9.24,-46.9
-0.17,-0.07,1.01,13.3,9.24,-47.32
-0.16,-0.08,1,10.92,8.33,-47.6
-0.16,-0.11,0.96,7.28,7.28,-47.53
-0.16,-0.15,0.93,6.72,5.46,-46.69
-0.16,-0.16,0.93,5.88,2.8,-45.36
-0.17,-0.17,0.93,4.2,0.84,-43.89
-0.16,-0.17,0.95,2.24,-0.77,-42
-0.17,-0.17,0.97,0.21,-2.1,-39.27
-0.16,-0.17,1,-1.4,-2.73,-37.31
-0.16,-0.17,1.03,-3.15,-1.75,-34.79
-0.17,-0.18,1.06,-1.61,-1.19,-31.78
-0.16,-0.15,1.07,0.63,1.05,-29.61
-0.15,-0.16,1.07,-2.1,3.92,-27.72
-0.16,-0.19,1.03,2.66,3.85,-25.06
-0.13,-0.16,1.04,1.96,5.81,-22.82
-0.13,-0.17,1,-0.14,7.63,-19.95
-0.14,-0.21,0.97,2.03,7.07,-16.45
-0.13,-0.2,0.97,3.01,7.7,-13.51
-0.13,-0.2,0.96,0.56,8.12,-10.29
-0.13,-0.21,0.94,1.05,7.84,-6.3
-0.13,-0.2,0.94,-0.21,7.84,-3.01
-0.13,-0.2,0.93,-3.22,7.63,-0.14
-0.12,-0.21,0.92,-4.13,6.79,2.66
-0.12,-0.22,0.94,-4.83,6.44,6.23
-0.09,-0.21,0.96,-4.76,6.51,13.37
-0.12,-0.16,0.96,-2.66,6.16,9.94
-0.11,-0.11,0.97,-2.31,4.27,6.79
0,-0.16,1,-4.83,5.67,8.26
-0.13,-0.22,0.94,-3.43,3.99,12.53
-0.12,-0.17,1,-10.57,1.96,10.85
-0.11,-0.26,0.97,-8.33,3.71,20.3
-0.14,-0.2,0.98,-12.04,2.1,21.49
-0.12,-0.22,1.02,-7.7,0.63,27.51
-0.13,-0.19,1.08,-10.29,1.82,27.23
-0.17,-0.18,1.05,-11.62,2.03,21.7
-0.14,-0.21,1.09,-12.25,2.17,26.88
-0.12,-0.2,1.07,-13.37,4.69,31.22
-0.12,-0.22,1.07,-15.26,3.01,33.6
-0.12,-0.2,1.08,-12.74,1.61,35.35
-0.13,-0.18,1.11,-12.04,1.12,36.68
-0.13,-0.17,1.12,-9.52,0.84,38.43
-0.11,-0.13,1.14,-9.03,-0.14,39.2
-0.09,-0.12,1.14,-10.64,-0.21,39.55
-0.09,-0.11,1.14,-10.78,-1.33,39.41
-0.07,-0.11,1.15,-9.31,-2.1,39.13
-0.06,-0.11,1.16,-8.05,-3.01,38.71
-0.06,-0.11,1.18,-3.71,-3.29,38.08
-0.06,-0.09,1.23,1.19,-2.8,37.59
-0.07,-0.06,1.26,3.99,0.56,37.38
-0.08,-0.04,1.25,5.18,4.06,37.24
-0.09,-0.02,1.22,6.58,7.63,37.1
-0.09,-0.01,1.17,6.3,10.22,36.96
-0.1,-0.03,1.1,6.3,11.34,36.89
-0.09,-0.05,1.03,6.51,11.76,36.75
-0.08,-0.06,0.97,6.44,9.8,36.75
-0.08,-0.08,0.93,5.88,7,37.03
-0.07,-0.09,0.92,4.76,3.85,37.52
-0.06,-0.08,0.94,0.42,0.49,37.8
-0.05,-0.08,0.94,-3.36,-2.17,37.8
-0.05,-0.08,0.96,-6.79,-5.04,37.73
-0.05,-0.08,0.98,-9.1,-7.07,37.52
-0.05,-0.07,1.01,-9.38,-8.54,37.17
-0.05,-0.06,1.02,-9.38,-9.17,36.61
-0.06,-0.05,1.02,-8.89,-10.08,35.91
-0.06,-0.05,1.03,-7.84,-10.99,35
-0.05,-0.04,1.04,-7.21,-11.27,33.67
-0.05,-0.05,1.04,-6.93,-11.06,32.55
-0.05,-0.05,1.03,-5.67,-11.41,31.29
-0.05,-0.05,1.02,-4.97,-11.34,30.1
-0.04,-0.06,0.99,-4.69,-11.55,28.42
-0.04,-0.07,0.98,-3.92,-12.74,27.51
-0.04,-0.08,0.98,-3.22,-13.37,26.67
-0.04,-0.1,0.97,-2.31,-13.79,26.32
-0.04,-0.11,0.96,-2.1,-14.21,26.18
-0.05,-0.11,0.96,-2.45,-14.56,26.53
-0.05,-0.12,0.96,-2.8,-14.56,27.09
-0.05,-0.13,0.96,-3.71,-14.56,28.07
-0.05,-0.14,0.96,-4.27,-14.42,28.77
-0.06,-0.14,0.95,-3.5,-14.28,29.54
-0.05,-0.14,0.96,-3.08,-13.93,30.1
-0.05,-0.14,0.96,-3.01,-13.58,30.66
-0.05,-0.14,0.95,-3.08,-12.95,31.01
-0.04,-0.14,0.95,-3.43,-12.88,30.94
-0.03,-0.14,0.96,-3.5,-12.74,30.59
-0.03,-0.14,0.96,-3.43,-12.11,30.1
-0.03,-0.14,0.97,-2.38,-12.04,29.61
-0.03,-0.13,0.98,-2.59,-11.06,28.7
-0.03,-0.13,0.98,-3.15,-10.22,27.86
-0.04,-0.14,0.99,-2.66,-9.38,27.44
-0.04,-0.15,1.01,-2.1,-8.4,27.16
-0.05,-0.16,1.02,-0.28,-7.56,27.02
-0.04,-0.16,1.03,0.21,-5.67,26.88
-0.04,-0.15,1.04,1.89,-4.69,26.6
-0.05,-0.14,1.07,2.59,-3.92,26.25
-0.04,-0.12,1.09,2.38,-1.61,25.55
-0.05,-0.11,1.1,3.22,0.28,24.99
-0.06,-0.1,1.11,4.2,1.54,24.57
-0.07,-0.09,1.11,3.78,2.8,24.15
-0.08,-0.11,1.1,4.27,3.22,24.22
-0.08,-0.12,1.11,4.41,2.73,24.85
-0.08,-0.12,1.1,4.41,2.45,25.69
-0.08,-0.13,1.1,4.34,1.47,27.02
-0.08,-0.12,1.09,3.22,0.28,27.79
-0.08,-0.1,1.1,1.96,-0.91,28.56
-0.08,-0.09,1.12,0.84,-1.47,29.61
-0.08,-0.09,1.13,-0.42,-1.12,30.31
-0.09,-0.09,1.14,-0.63,-0.49,30.94
-0.09,-0.09,1.16,-0.98,0.63,31.22
-0.08,-0.1,1.16,-1.05,2.38,31.64
-0.07,-0.1,1.16,-0.56,4.76,31.5
-0.06,-0.1,1.16,0.56,6.72,30.59
-0.06,-0.09,1.17,2.59,8.4,29.12
-0.06,-0.05,1.18,5.6,11.13,27.3
-0.07,-0.01,1.21,9.94,13.72,25.06
-0.08,0.02,1.2,11.62,17.29,23.1
-0.09,0.02,1.14,10.22,20.93,21.42
-0.1,-0.02,1.07,8.89,21.42,20.58
-0.08,-0.06,1,6.51,20.44,20.51
-0.08,-0.11,0.93,5.11,17.43,21.35
-0.08,-0.14,0.89,5.32,11.76,22.47
-0.08,-0.14,0.88,1.68,7.84,24.01
-0.09,-0.16,0.87,-0.84,2.94,25.97
-0.09,-0.12,0.9,-5.39,-2.52,28.21
-0.07,-0.11,0.93,-12.25,-6.58,29.61
-0.08,-0.1,0.96,-17.71,-10.01,30.66
-0.08,-0.1,1,-19.18,-12.81,31.36
-0.08,-0.08,1.03,-19.32,-13.79,31.43
-0.08,-0.07,1.06,-17.78,-14.42,31.15
-0.08,-0.05,1.09,-16.52,-14,31.15
-0.08,-0.05,1.1,-17.22,-12.74,31.22
-0.08,-0.05,1.09,-18.2,-11.69,31.43
-0.08,-0.08,1.08,-18.62,-10.99,32.27
-0.08,-0.11,1.06,-19.25,-10.01,33.67
-0.08,-0.15,1.02,-18.69,-10.08,35.28
-0.08,-0.18,0.99,-17.15,-10.92,38.5
-0.08,-0.2,0.97,-17.08,-12.11,41.44
-0.08,-0.2,0.95,-18.69,-13.65,44.45
-0.07,-0.2,0.95,-20.72,-14.77,47.32
-0.07,-0.19,0.96,-22.68,-15.68,50.82
-0.06,-0.19,0.96,-23.59,-16.38,52.43
-0.05,-0.17,0.97,-22.96,-16.87,53.48
-0.04,-0.15,0.98,-22.47,-16.73,54.11
-0.04,-0.14,0.97,-22.05,-16.52,54.25
-0.03,-0.14,0.98,-21.91,-16.38,54.11
-0.03,-0.15,0.98,-21.28,-15.68,54.11
-0.04,-0.16,0.98,-19.11,-15.12,53.9
-0.04,-0.15,1,-15.96,-13.65,53.76
-0.04,-0.12,1,-12.11,-12.67,53.27
-0.05,-0.11,0.99,-12.39,-11.27,53.13
-0.06,-0.13,0.95,-11.83,-10.99,53.13
-0.07,-0.12,0.93,-9.03,-11.55,53.34
-0.05,-0.12,0.97,-15.54,-9.94,53.76
-0.07,-0.24,0.89,-10.71,-10.36,55.02
-0.08,-0.19,0.92,-4.48,-14.14,55.51
-0.06,-0.14,0.95,-6.3,-11.76,56.42
-0.08,-0.15,0.91,-10.08,-12.81,56.91
-0.07,-0.15,0.93,-13.02,-14.21,57.75
-0.07,-0.16,0.93,-18.97,-14.7,58.59
-0.08,-0.19,0.93,-18.97,-17.15,59.22
-0.07,-0.19,0.96,-18.83,-17.22,59.92
-0.07,-0.2,0.97,-15.89,-17.99,59.78
-0.05,-0.17,1.01,-13.51,-17.08,59.5
-0.05,-0.13,1.05,-13.37,-16.59,58.8
-0.05,-0.1,1.09,-17.5,-14.7,57.61
-0.06,-0.1,1.08,-23.24,-11.9,56.77
-0.07,-0.15,1.06,-22.19,-11.41,55.79
-0.06,-0.15,1.09,-19.53,-10.01,54.95
-0.07,-0.19,1.11,-14.14,-7.98,54.67
-0.08,-0.2,1.13,-7.42,-7,54.32
-0.07,-0.14,1.15,-4.69,-4.62,54.32
-0.07,-0.11,1.16,-8.47,-3.08,54.11
-0.07,-0.12,1.15,-11.34,-2.24,54.39
-0.07,-0.17,1.14,-12.67,-2.45,54.95
-0.08,-0.2,1.14,-11.41,-2.8,56
-0.09,-0.22,1.15,-6.44,-3.71,57.33
-0.11,-0.22,1.14,-1.26,-4.76,60.13
-0.1,-0.13,1.12,2.87,-6.09,61.46
-0.11,-0.14,1.13,-1.61,-5.88,63.42
-0.14,-0.13,1.11,1.54,-9.45,65.31
-0.11,-0.09,1.08,-5.39,-9.31,67.41
-0.12,-0.12,1.01,-7.35,-12.6,69.23
-0.09,-0.18,0.98,-6.02,-16.73,70.91
-0.06,-0.2,0.95,-4.83,-20.3,73.01
-0.04,-0.21,0.95,-3.78,-25.13,75.18
-0.03,-0.2,0.96,-5.46,-29.61,77.28
-0.01,-0.2,0.99,-8.54,-32.13,79.38
-0.01,-0.2,1.03,-10.85,-34.3,81.55
0,-0.21,1.06,-12.53,-35,82.81
0.01,-0.2,1.08,-12.11,-34.72,83.65
0.01,-0.19,1.09,-9.73,-34.3,83.72
0.01,-0.16,1.11,-6.3,-33.6,83.16
0.01,-0.13,1.12,-2.31,-31.43,81.48
0.02,-0.11,1.12,0.28,-29.26,79.31
0.02,-0.08,1.1,1.54,-26.67,75.95
0.03,-0.08,1.07,2.59,-24.29,72.8
0.03,-0.08,1.03,3.99,-23.1,69.09
0.04,-0.08,0.99,5.53,-22.47,65.52
0.03,-0.08,0.98,7.35,-22.33,61.53
0.01,-0.08,0.96,8.33,-21.7,58.73
0,-0.09,0.94,6.51,-21.63,56.63
-0.01,-0.11,0.91,6.02,-21.84,54.74
-0.01,-0.12,0.91,4.55,-22.19,53.9
-0.02,-0.13,0.9,2.17,-22.47,53.06
-0.02,-0.13,0.9,1.61,-22.96,52.22
-0.01,-0.12,0.9,0.35,-23.45,51.38
-0.01,-0.11,0.91,-0.98,-23.94,50.12
-0.01,-0.09,0.93,-2.45,-24.22,48.3
0,-0.07,0.95,-4.13,-23.73,46.2
0,-0.06,0.98,-6.16,-23.1,43.89
0,-0.06,1.01,-6.93,-21.84,40.74
-0.01,-0.07,1.04,-6.23,-19.88,38.01
-0.01,-0.07,1.05,-5.25,-17.64,35.07
-0.02,-0.06,1.08,-4.41,-15.47,32.13
-0.03,-0.05,1.08,-4.34,-12.88,28.35
-0.03,-0.04,1.07,-4.83,-10.01,25.27
-0.03,-0.04,1.07,-5.11,-8.05,21.98
-0.03,-0.04,1.08,-4.76,-6.51,17.92
-0.04,-0.04,1.11,-2.87,-4.27,14.49
-0.06,-0.03,1.15,0.42,-1.75,11.34
-0.07,-0.03,1.21,1.26,1.4,8.4
-0.08,-0.05,1.19,1.89,5.25,5.88
-0.1,-0.06,1.19,4.62,7.84,4.62
-0.12,-0.08,1.19,6.65,10.15,3.92
-0.13,-0.09,1.18,9.24,12.25,3.57
-0.12,-0.09,1.18,11.69,13.37,3.5
-0.12,-0.1,1.15,12.74,13.37,3.57
-0.12,-0.11,1.12,13.37,12.46,3.57
-0.13,-0.11,1.11,12.6,11.13,3.92
-0.13,-0.12,1.08,12.11,9.73,4.34
-0.12,-0.15,1.06,12.74,7.7,5.32
-0.11,-0.15,1.04,14.7,4.62,5.53
-0.11,-0.13,1.04,16.17,2.03,5.18
-0.11,-0.11,1.07,17.15,0.35,4.55
-0.13,-0.08,1.09,18.34,-0.91,4.13
-0.14,-0.06,1.1,18.48,-0.42,3.57
-0.16,-0.05,1.07,18.97,-0.21,3.5
-0.16,-0.05,1.04,19.74,-0.56,3.22
-0.16,-0.06,1,19.04,-1.68,3.29
-0.15,-0.07,0.95,17.92,-3.85,3.36
-0.14,-0.09,0.91,16.59,-6.72,3.43
-0.14,-0.11,0.89,14.21,-10.78,3.99
-0.13,-0.12,0.87,10.99,-14.77,4.48
-0.11,-0.13,0.88,7.91,-18.55,5.18
-0.1,-0.12,0.89,3.08,-21.84,5.6
-0.09,-0.11,0.91,-0.56,-24.99,5.32
-0.09,-0.1,0.94,-4.41,-26.6,4.48
-0.09,-0.08,0.98,-6.44,-27.02,3.15
-0.1,-0.06,1.03,-6.51,-26.11,1.68
-0.1,-0.05,1.08,-5.95,-23.17,0.21
-0.1,-0.04,1.1,-5.67,-19.6,-1.12
-0.1,-0.05,1.09,-4.34,-16.1,-2.73
-0.09,-0.07,1.09,-2.8,-12.04,-3.57
-0.09,-0.1,1.06,-1.68,-8.89,-3.92
-0.09,-0.12,1.03,-0.49,-5.81,-3.78
-0.09,-0.13,1.01,1.26,-4.06,-3.01
-0.09,-0.13,0.99,2.1,-2.31,-1.61
-0.1,-0.14,0.97,1.82,-0.56,-0.07
-0.1,-0.16,0.94,0.42,0.14,1.96
-0.11,-0.17,0.91,-0.21,0.21,4.2
-0.1,-0.17,0.89,-1.26,0.07,6.86
-0.1,-0.18,0.88,-2.24,-0.49,8.47
-0.09,-0.18,0.87,-2.38,-1.54,9.94
-0.09,-0.17,0.89,-2.73,-2.38,11.13
-0.08,-0.15,0.89,-3.5,-2.66,11.69
-0.08,-0.14,0.9,-4.34,-3.29,11.55
-0.07,-0.12,0.92,-5.11,-3.15,11.13
-0.08,-0.11,0.93,-6.79,-2.8,10.15
-0.08,-0.12,0.93,-7.14,-2.52,9.52
-0.08,-0.12,0.94,-6.86,-2.38,8.54
-0.08,-0.14,0.94,-5.18,-2.38,7.77
-0.08,-0.14,0.95,-4.2,-2.38,7.49
-0.09,-0.15,0.94,-3.71,-2.59,7.35
-0.1,-0.14,0.95,-4.62,-3.36,7.7
-0.1,-0.15,0.97,-6.02,-3.43,8.47
-0.09,-0.16,0.98,-7.35,-3.71,9.17
-0.09,-0.18,1,-7.7,-4.2,10.08
-0.09,-0.19,1.02,-7.63,-4.76,11.27
-0.09,-0.19,1.03,-6.51,-5.32,12.18
-0.08,-0.18,1.06,-7.56,-6.02,12.95
-0.08,-0.2,1.06,-7.49,-6.51,14.14
-0.07,-0.18,1.09,-5.95,-7.42,14.7
-0.07,-0.16,1.13,-6.09,-7.07,15.19
-0.07,-0.15,1.15,-5.6,-6.86,15.75
-0.06,-0.15,1.17,-4.62,-6.3,15.89
-0.06,-0.16,1.19,-3.29,-5.67,16.31
-0.06,-0.16,1.22,-0.42,-5.11,16.66
-0.05,-0.16,1.24,2.52,-4.41,17.15
-0.04,-0.17,1.25,4.13,-3.5,17.43
-0.04,-0.17,1.25,7.84,-3.29,18.27
-0.05,-0.15,1.27,10.71,-3.01,19.39
-0.08,-0.12,1.29,13.23,-0.91,20.86
-0.11,-0.1,1.27,15.54,1.4,22.61
-0.14,-0.1,1.22,17.57,3.43,24.71
-0.15,-0.09,1.17,18.48,4.9,27.86
-0.13,-0.1,1.09,14.98,5.74,30.59
-0.11,-0.13,0.88,13.02,3.22,32.55
-0.08,-0.14,0.94,11.9,-0.98,34.3
-0.04,-0.14,0.91,7.98,-6.16,35.28
-0.03,-0.13,0.9,4.06,-11.06,35.56
-0.01,-0.11,0.94,-0.7,-15.47,35.84
0,-0.1,0.97,-5.88,-18.13,34.93
0.01,-0.09,1.01,-8.82,-21.07,34.02
0.01,-0.09,1.07,-12.95,-20.79,32.97
0,-0.1,1.09,-13.93,-19.81,31.36
-0.01,-0.08,1.13,-11.97,-17.71,29.68
-0.01,-0.06,1.18,-11.41,-14,28
-0.01,-0.05,1.17,-12.04,-9.1,25.97
-0.02,-0.04,1.14,-10.78,-5.18,23.45
-0.02,-0.03,1.13,-9.73,-0.63,20.93
-0.01,-0.03,1.1,-9.45,3.22,18.41
-0.01,-0.04,1.06,-8.19,6.02,15.4
-0.02,-0.05,1.03,-7.14,8.89,13.3
-0.03,-0.04,1,-7.49,10.36,11.41
-0.03,-0.05,0.96,-9.24,11.34,10.29
-0.04,-0.08,0.93,-11.34,11.76,10.08
-0.05,-0.1,0.9,-13.23,11.13,10.36
-0.06,-0.12,0.87,-14.49,10.01,11.34
-0.06,-0.12,0.86,-15.61,8.05,12.53
-0.06,-0.12,0.85,-16.52,5.6,13.65
-0.06,-0.09,0.86,-18.76,3.43,14.56
-0.05,-0.08,0.85,-23.17,1.54,14.91
-0.05,-0.09,0.85,-25.06,-2.03,14.49
-0.04,-0.09,0.88,-25.48,-4.27,13.86
-0.04,-0.1,0.92,-23.38,-5.53,12.88
-0.04,-0.09,0.94,-21.07,-6.51,11.62
-0.04,-0.08,0.95,-19.32,-7.42,10.22
-0.03,-0.07,0.97,-18.48,-8.33,8.82
-0.04,-0.07,0.99,-17.71,-8.54,7.35
-0.04,-0.08,1,-16.45,-8.26,6.23
-0.05,-0.09,1.01,-13.93,-8.54,4.9
-0.05,-0.11,1.02,-11.13,-8.19,3.99
-0.05,-0.11,1.02,-7.91,-8.54,3.08
-0.06,-0.12,1.01,-5.46,-9.45,1.68
-0.06,-0.1,1.03,-3.78,-11.13,-0.14
-0.06,-0.09,1.02,-1.89,-12.81,-1.96
-0.07,-0.08,1.03,0.49,-15.05,-3.78
-0.08,-0.07,1.05,2.87,-17.08,-6.65
-0.11,-0.07,1.08,6.58,-19.46,-8.26
-0.14,-0.07,1.14,12.25,-20.37,-9.31
-0.15,-0.08,1.19,14.42,-19.95,-9.94
-0.16,-0.1,1.2,16.73,-19.04,-9.38
-0.17,-0.13,1.21,19.46,-18.41,-8.4
-0.17,-0.16,1.19,20.86,-17.29,-6.93
-0.17,-0.17,1.17,24.15,-16.8,-5.18
-0.14,-0.15,1.16,26.46,-15.82,-4.55
-0.11,-0.14,1.12,27.58,-15.75,-4.97
-0.07,-0.13,1.1,30.17,-17.22,-6.93
-0.07,-0.1,1.14,32.27,-17.08,-9.03
-0.1,-0.09,1.2,32.62,-14.49,-10.92
-0.14,-0.08,1.2,33.95,-9.59,-12.11
-0.14,-0.05,1.18,32.69,-5.53,-13.23
-0.14,-0.07,1.1,29.19,-2.59,-14.14
-0.13,-0.12,1.05,27.09,-1.05,-15.26
-0.12,-0.15,1,25.55,-0.42,-15.12
-0.11,-0.19,0.95,23.52,-0.91,-14.14
-0.1,-0.21,0.9,23.31,-2.59,-12.81
-0.09,-0.16,0.92,19.81,-4.97,-11.69
-0.06,-0.14,0.93,10.99,-5.95,-11.06
-0.07,-0.14,0.97,6.72,-7,-10.71
-0.07,-0.13,1.02,1.68,-5.53,-10.43
-0.08,-0.14,1.05,0.56,-3.01,-10.64
-0.09,-0.13,1.08,3.64,-0.07,-10.92
-0.1,-0.1,1.11,6.23,5.04,-11.2
-0.09,-0.07,1.1,5.25,10.36,-11.9
-0.09,-0.06,1.06,4.9,14.49,-12.81
-0.08,-0.06,1.03,3.36,18.34,-13.16
-0.07,-0.08,0.99,0.28,20.79,-13.58
-0.07,-0.12,0.92,-0.07,21.49,-13.65
-0.06,-0.15,0.88,0.07,21,-13.3
-0.07,-0.15,0.84,-0.84,19.25,-12.67
-0.08,-0.16,0.81,-3.57,16.31,-11.34
-0.08,-0.15,0.8,-7.56,13.86,-10.22
-0.08,-0.15,0.81,-11.2,11.13,-8.82
-0.08,-0.14,0.84,-13.93,8.33,-7.84
-0.07,-0.15,0.86,-15.54,6.86,-7.49
-0.08,-0.15,0.89,-14.77,5.39,-7.21
-0.07,-0.14,0.91,-13.23,4.41,-7.49
-0.08,-0.13,0.94,-13.02,3.92,-7.98
-0.08,-0.13,0.96,-11.83,3.64,-7.91
-0.08,-0.13,0.98,-10.78,3.92,-7.91
-0.09,-0.15,0.97,-10.29,4.27,-7.77
-0.1,-0.18,0.96,-8.12,4.27,-6.79
-0.11,-0.19,0.96,-5.88,4.97,-5.32
-0.13,-0.2,0.96,-2.94,5.32,-3.57
-0.13,-0.2,0.95,-1.89,5.88,-1.26
-0.12,-0.2,0.93,-4.13,5.88,0.7
-0.12,-0.23,0.91,-5.25,4.48,2.87
-0.11,-0.21,0.96,-7.42,1.89,4.55
-0.1,-0.27,0.94,-8.61,3.01,7.21
-0.11,-0.25,0.96,-5.67,-0.91,8.89
-0.09,-0.22,0.98,-8.33,-1.05,10.36
-0.1,-0.21,1,-8.33,-3.01,11.41
-0.1,-0.19,1.05,-6.37,-4.97,12.04
-0.09,-0.14,1.12,-6.16,-4.62,12.46
-0.1,-0.12,1.16,-8.05,-4.13,12.18
-0.1,-0.13,1.16,-6.86,-3.36,11.76
-0.08,-0.16,1.16,-5.74,-3.64,11.55
-0.07,-0.2,1.15,-3.71,-4.55,11.48
-0.06,-0.2,1.18,-0.7,-6.65,11.34
-0.06,-0.2,1.23,1.75,-7.21,11.48
-0.06,-0.18,1.26,5.04,-7.63,11.62
-0.07,-0.16,1.3,7.56,-6.79,12.11
-0.1,-0.15,1.36,9.38,-4.83,13.51
-0.14,-0.14,1.39,13.23,-0.42,15.19
-0.17,-0.12,1.37,17.85,3.99,17.08
-0.19,-0.12,1.27,21.21,7.14,19.6
-0.18,-0.12,1.18,22.61,8.4,22.12
-0.13,-0.13,1.08,20.65,7.42,23.8
-0.1,-0.16,0.98,19.25,3.36,25.06
-0.08,-0.17,0.93,18.76,-2.31,26.67
-0.06,-0.14,0.93,14.7,-8.19,27.65
-0.06,-0.14,0.94,9.8,-12.81,28.84
-0.05,-0.14,0.97,6.02,-16.73,29.82
-0.04,-0.13,1.01,2.73,-19.74,30.87
-0.03,-0.12,1.05,0.63,-21.84,31.43
-0.03,-0.1,1.08,-0.14,-22.19,31.78
-0.03,-0.08,1.11,0.21,-21.63,31.5
-0.04,-0.05,1.15,0.56,-19.39,31.01
-0.02,-0.03,1.15,-0.56,-15.96,30.59
-0.01,-0.04,1.1,-2.45,-12.6,29.68
-0.01,-0.06,1.04,-3.43,-11.13,28.91
-0.01,-0.07,1,-4.27,-9.31,28.28
-0.01,-0.08,0.98,-4.48,-8.68,27.79
-0.01,-0.07,0.97,-4.62,-7.63,27.09
-0.01,-0.06,0.95,-6.51,-6.16,26.46
-0.02,-0.05,0.92,-9.03,-5.95,25.41
-0.01,-0.04,0.9,-11.27,-5.6,24.5
-0.01,-0.04,0.89,-14.49,-4.69,23.38
-0.02,-0.04,0.88,-16.1,-4.41,22.19
-0.01,-0.04,0.89,-18.13,-3.71,21.21
-0.01,-0.05,0.89,-20.09,-2.94,19.81
-0.02,-0.06,0.9,-21.28,-2.31,18.83
-0.01,-0.08,0.9,-23.87,-1.82,17.78
-0.01,-0.08,0.91,-24.57,-1.82,16.73
-0.01,-0.08,0.93,-24.71,-1.4,14.91
-0.02,-0.07,0.94,-24.22,-1.05,12.95
-0.02,-0.05,0.95,-23.31,-0.49,10.64
-0.02,-0.05,0.96,-21.98,-0.21,7.56
-0.03,-0.03,0.98,-19.88,-0.63,5.18
-0.03,-0.03,1,-18.62,-0.42,2.73
-0.05,-0.06,1,-16.66,-0.84,0.42
-0.06,-0.08,1.01,-13.86,-1.82,-1.4
-0.06,-0.11,1,-12.81,-2.59,-2.17
-0.08,-0.14,0.99,-9.52,-4.48,-2.17
-0.09,-0.15,1.03,-5.18,-6.51,-1.75
-0.1,-0.13,1.07,-2.8,-6.86,-0.63
-0.12,-0.13,1.08,1.47,-7.56,0.49
-0.13,-0.11,1.11,4.48,-8.33,1.47
-0.12,-0.09,1.14,5.67,-7.84,2.73
-0.13,-0.11,1.12,6.23,-7.84,3.78
-0.13,-0.14,1.11,7.84,-8.82,5.53
-0.13,-0.16,1.11,9.45,-9.8,7
-0.12,-0.16,1.13,14.28,-10.64,8.26
-0.12,-0.15,1.16,16.87,-10.22,9.73
-0.11,-0.15,1.16,19.18,-9.8,10.29
-0.09,-0.14,1.18,20.93,-9.59,10.01
-0.08,-0.13,1.2,21.56,-8.26,9.52
-0.09,-0.11,1.22,22.54,-6.37,8.4
-0.12,-0.1,1.22,23.73,-3.08,7.21
-0.14,-0.09,1.22,27.44,0.21,6.23
-0.16,-0.07,1.19,31.01,3.64,5.32
-0.16,-0.04,1.14,32.69,7.21,5.04
-0.15,-0.05,1.07,31.15,8.26,4.62
-0.14,-0.08,0.97,28.42,7.56,3.99
-0.13,-0.14,0.91,25.83,4.97,3.85
-0.11,-0.16,0.88,23.31,0.56,3.78
-0.1,-0.17,0.87,20.58,-3.57,4.13
-0.09,-0.14,0.89,16.38,-8.26,3.78
-0.09,-0.12,0.91,10.99,-11.48,3.22
-0.09,-0.1,0.96,7.56,-13.65,1.96
-0.1,-0.07,1,6.09,-14.98,-0.07
-0.12,-0.05,1.06,7.63,-14.49,-1.82
-0.13,-0.03,1.12,8.33,-11.9,-3.22
-0.14,-0.03,1.12,10.22,-8.4,-4.34
-0.15,-0.04,1.11,12.04,-4.55,-4.76
-0.14,-0.04,1.11,13.72,-1.61,-4.55
-0.13,-0.04,1.07,13.16,1.54,-4.2
-0.12,-0.07,1.02,12.81,3.08,-2.94
-0.11,-0.09,0.97,12.6,2.66,-2.03
-0.11,-0.11,0.91,11.69,1.54,-0.7
-0.1,-0.14,0.88,11.83,-1.54,1.68
-0.1,-0.14,0.87,9.87,-4.69,4.2
-0.11,-0.13,0.86,6.51,-7.14,7.63
-0.12,-0.12,0.87,2.59,-10.15,10.01
-0.11,-0.1,0.87,-3.15,-11.76,12.39
-0.1,-0.11,0.85,-7,-13.51,13.72
-0.1,-0.11,0.86,-8.82,-16.38,15.12
-0.09,-0.11,0.88,-9.94,-17.78,15.47
-0.09,-0.11,0.9,-10.43,-18.55,15.68
-0.09,-0.1,0.93,-10.5,-18.41,15.82
-0.09,-0.07,0.96,-12.18,-16.94,16.03
-0.09,-0.07,0.97,-15.26,-15.33,15.96
-0.09,-0.09,0.97,-16.73,-13.79,15.61
-0.1,-0.11,0.97,-16.52,-12.53,15.47
-0.1,-0.13,0.98,-15.54,-10.71,15.96
-0.1,-0.15,0.98,-13.58,-9.59,16.66
-0.1,-0.16,0.99,-12.6,-8.4,18.06
-0.1,-0.16,1.02,-12.53,-6.72,19.46
-0.1,-0.15,1.05,-13.02,-4.9,20.72
-0.1,-0.14,1.08,-12.88,-3.01,21.49
-0.1,-0.14,1.11,-12.6,-1.12,22.05
-0.09,-0.13,1.12,-12.04,0.7,22.12
-0.1,-0.12,1.12,-9.94,1.68,21.98
-0.1,-0.12,1.13,-8.05,3.01,21.77
-0.1,-0.11,1.12,-6.65,3.85,21.49
-0.09,-0.1,1.12,-5.74,3.71,21
-0.07,-0.11,1.11,-6.65,3.36,20.37
-0.06,-0.12,1.09,-7.14,1.82,19.67
-0.05,-0.13,1.1,-7.56,-0.63,18.62
-0.04,-0.14,1.11,-8.47,-2.31,18.2
-0.04,-0.16,1.13,-7.77,-4.62,18.34
-0.04,-0.17,1.15,-6.09,-5.95,18.97
-0.06,-0.18,1.21,-3.15,-6.65,20.09
-0.08,-0.15,1.26,3.5,-5.6,21.56
-0.11,-0.1,1.33,5.25,-2.52,23.8
-0.13,-0.07,1.31,7.7,2.87,25.69
-0.13,-0.06,1.23,10.64,5.18,27.72
-0.1,-0.07,1.16,11.27,7,29.26
-0.06,-0.11,1.06,10.64,6.02,30.87
-0.05,-0.16,0.96,13.58,2.31,32.06
-0.03,-0.15,0.96,15.96,-2.17,33.74
0,-0.13,0.96,13.86,-6.02,34.86
0,-0.13,0.96,11.27,-9.8,35.49
0,-0.1,1.01,9.1,-12.32,35.98
0,-0.07,1.06,6.37,-13.3,35.77
0,-0.07,1.08,6.44,-12.6,34.86
-0.02,-0.04,1.09,8.12,-10.99,33.46
-0.02,-0.02,1.1,9.8,-8.75,31.92
-0.03,0,1.09,10.22,-5.11,29.96
-0.03,0.01,1.05,9.1,-2.59,27.79
-0.03,0.02,1,7.35,-0.49,25.41
-0.02,0,0.97,5.74,0.98,22.19
-0.02,-0.01,0.93,5.81,1.33,20.09
-0.02,-0.01,0.9,5.04,1.47,16.94
-0.02,0,0.88,3.57,0.49,15.05
-0.02,0,0.87,0.07,-0.63,13.3
-0.02,-0.01,0.85,-4.97,-1.61,11.83
-0.02,-0.04,0.84,-8.82,-3.43,11.13
-0.03,-0.07,0.84,-12.88,-4.55,11.27
-0.03,-0.09,0.84,-14.28,-5.74,11.34
-0.03,-0.1,0.86,-14.91,-6.58,12.25
-0.03,-0.1,0.89,-16.03,-6.72,12.74
-0.02,-0.09,0.91,-16.73,-6.37,12.95
-0.01,-0.08,0.93,-18.62,-5.88,12.32
0,-0.08,0.94,-19.18,-5.25,11.41
0.01,-0.08,0.96,-18.27,-4.48,9.45
0.02,-0.08,0.99,-16.94,-3.22,7.56
0.02,-0.08,0.99,-14.35,-1.89,4.76
0.02,-0.08,1.01,-11.62,-0.49,2.52
0.01,-0.09,1.02,-9.03,0.56,0.56
0,-0.1,1.03,-7.28,1.75,-1.54
-0.01,-0.11,1.04,-6.09,2.73,-2.52
-0.01,-0.12,1.04,-4.9,3.5,-3.01
-0.03,-0.15,1.05,-3.08,3.29,-3.29
-0.04,-0.15,1.07,1.33,3.08,-3.08
-0.06,-0.14,1.09,4.76,2.87,-2.87
-0.07,-0.1,1.11,7.42,2.73,-2.73
-0.08,-0.08,1.11,8.33,2.24,-2.73
-0.07,-0.08,1.12,8.12,1.68,-2.87
-0.08,-0.1,1.13,9.94,0.21,-2.87
-0.07,-0.1,1.15,11.27,-0.84,-2.73
-0.07,-0.13,1.14,13.02,-1.89,-2.52
-0.07,-0.12,1.16,15.68,-3.64,-2.17
-0.07,-0.11,1.19,16.73,-3.85,-1.89
-0.07,-0.09,1.2,16.87,-3.78,-1.75
-0.06,-0.08,1.19,16.45,-3.99,-1.96
-0.05,-0.07,1.2,15.89,-4.2,-2.94
-0.07,-0.05,1.21,16.31,-3.78,-3.99
-0.1,-0.03,1.23,18.34,-2.45,-4.83
-0.12,-0.01,1.23,19.11,0.28,-5.6
-0.14,0,1.18,19.67,2.52,-6.16
-0.13,0.01,1.13,19.04,3.64,-6.86
-0.12,0,1.07,14.28,4.06,-7.28
-0.12,-0.04,1,11.13,2.03,-7.56
-0.1,-0.07,0.95,7.98,-0.7,-7.84
-0.1,-0.08,0.93,4.97,-3.71,-7.49
-0.09,-0.1,0.94,2.45,-6.58,-7.14
-0.08,-0.09,0.97,-0.07,-9.45,-6.16
-0.08,-0.08,1,-2.73,-10.85,-5.74
-0.09,-0.07,1.04,-4.06,-11.2,-5.25
-0.09,-0.05,1.1,-4.69,-9.8,-4.62
-0.1,-0.05,1.11,-4.06,-6.86,-4.34
-0.1,-0.05,1.11,-1.47,-4.13,-3.99
-0.1,-0.04,1.07,0.91,-1.19,-3.71
-0.09,-0.06,1.03,3.5,0.35,-3.36
-0.08,-0.06,1.02,4.55,2.17,-2.59
-0.07,-0.07,0.97,4.27,2.94,-1.89
-0.07,-0.1,0.92,4.76,2.31,-0.7
-0.07,-0.11,0.9,4.69,1.75,0.49
-0.08,-0.12,0.87,4.13,0.56,1.89
-0.08,-0.13,0.85,5.18,-1.61,3.57
-0.08,-0.12,0.85,4.48,-3.5,5.74
-0.08,-0.11,0.85,2.24,-4.69,7.21
-0.09,-0.11,0.85,0,-6.09,8.68
-0.08,-0.11,0.86,-2.45,-6.65,9.87
-0.09,-0.12,0.86,-3.99,-7.49,11.13
-0.09,-0.12,0.87,-3.64,-8.82,11.55
-0.08,-0.11,0.89,-3.99,-9.1,11.55
-0.08,-0.11,0.9,-3.99,-9.59,11.48
-0.08,-0.1,0.92,-3.71,-9.8,11.41
-0.09,-0.09,0.95,-4.2,-9.1,11.69
-0.1,-0.1,0.98,-4.48,-7.98,11.62
-0.11,-0.11,0.98,-4.55,-6.37,12.39
-0.12,-0.12,0.98,-3.78,-4.97,13.16
-0.12,-0.13,0.98,-2.66,-4.2,14.35
-0.12,-0.14,0.99,-1.47,-3.85,15.82
-0.11,-0.15,0.99,-0.42,-3.29,17.43
-0.1,-0.16,1,-0.63,-3.36,19.11
-0.1,-0.16,1.02,-0.63,-3.57,21
-0.1,-0.16,1.05,-0.42,-2.8,22.82
-0.09,-0.14,1.07,0.42,-1.82,23.8
-0.1,-0.12,1.09,0.98,-0.98,24.22
-0.1,-0.1,1.1,2.38,-0.07,24.01
-0.1,-0.06,1.11,3.43,1.4,23.38
-0.11,-0.05,1.11,2.73,2.31,22.19
-0.1,-0.05,1.1,3.29,2.45,20.79
-0.09,-0.06,1.09,2.8,2.03,18.97
-0.08,-0.07,1.08,3.15,0.14,17.64
-0.07,-0.08,1.09,2.59,-1.4,16.31
-0.08,-0.08,1.12,2.1,-3.43,14.7
-0.07,-0.08,1.15,1.68,-5.6,13.86
-0.1,-0.1,1.19,1.96,-6.72,13.3
-0.13,-0.09,1.27,4.76,-6.51,13.3
-0.15,-0.05,1.33,6.93,-4.06,13.79
-0.18,-0.04,1.35,7.98,1.82,14.49
-0.2,-0.03,1.31,12.88,5.46,15.19
-0.19,0.02,1.24,13.86,8.47,15.89
-0.16,0.01,1.15,10.99,10.99,16.24
-0.12,-0.03,1.04,7.77,9.31,16.73
-0.1,-0.08,0.95,7.49,5.46,17.08
-0.08,-0.11,0.94,6.65,0.98,18.34
-0.08,-0.13,0.94,4.27,-3.78,20.02
-0.07,-0.13,0.96,0.91,-7.28,21.63
-0.06,-0.12,1,-2.17,-9.59,24.01
-0.07,-0.09,1.05,-3.85,-10.57,25.13
-0.06,-0.06,1.11,-5.25,-9.52,25.62
-0.06,-0.04,1.14,-5.04,-7.56,25.41
-0.05,-0.01,1.15,-2.59,-4.9,23.8
-0.04,0.03,1.15,-0.49,-1.12,21.56
-0.04,0.04,1.01,0.56,2.66,19.25
-0.04,0.04,1.08,1.89,5.95,16.03
-0.04,0.03,1.03,2.94,7.7,13.65
-0.04,0.01,0.98,3.43,8.54,11.27
-0.03,0,0.94,3.15,8.68,9.73
-0.04,-0.02,0.91,1.61,7.63,8.54
-0.04,-0.03,0.87,-0.35,5.74,8.26
-0.04,-0.05,0.85,-3.92,3.92,8.75
-0.05,-0.07,0.83,-6.93,1.89,9.94
-0.06,-0.09,0.83,-9.45,-0.07,11.97
-0.06,-0.11,0.83,-11.48,-2.1,13.65
-0.06,-0.11,0.85,-13.37,-3.57,15.33
-0.04,-0.1,0.89,-15.26,-4.13,16.1
-0.03,-0.07,0.89,-17.36,-4.27,16.1
-0.02,-0.06,0.9,-19.53,-4.62,14.91
-0.01,-0.06,0.93,-20.02,-4.48,13.3
-0.02,-0.06,0.95,-20.16,-3.71,10.29
-0.03,-0.07,0.96,-18.83,-2.31,8.12
-0.04,-0.07,0.98,-15.75,-1.33,5.6
-0.05,-0.07,1,-14.14,0.14,2.73
-0.06,-0.07,1.02,-13.16,1.96,0.28
-0.06,-0.07,1.03,-12.74,3.22,-2.03
-0.07,-0.08,1.03,-12.81,3.92,-4.27
-0.07,-0.11,1.03,-10.92,4.13,-6.37
-0.08,-0.12,1.05,-7.98,4.41,-7.42
-0.1,-0.14,1.07,-1.82,4.27,-8.12
-0.11,-0.12,1.09,2.45,4.2,-8.68
-0.12,-0.1,1.11,3.08,4.62,-8.4
-0.12,-0.11,1.11,3.15,4.41,-7.91
-0.12,-0.12,1.13,4.2,4.13,-6.93
-0.13,-0.14,1.13,5.25,3.92,-5.46
-0.14,-0.15,1.14,8.54,2.87,-3.92
-0.13,-0.15,1.16,12.04,2.38,-2.52
-0.12,-0.16,1.15,13.16,1.4,-0.63
-0.11,-0.15,1.15,13.79,-0.98,0.49
-0.1,-0.13,1.17,12.25,-1.68,1.26
-0.11,-0.12,1.17,11.34,-2.94,1.19
-0.1,-0.11,1.18,11.34,-3.92,0.28
-0.08,-0.09,1.18,12.11,-5.11,-1.82
-0.09,-0.07,1.19,15.12,-6.09,-4.13
-0.12,-0.02,1.26,20.23,-6.16,-7.84
-0.15,0.06,1.31,23.24,-2.52,-10.36
-0.18,0.08,1.31,21.56,3.29,-12.11
-0.2,0.07,1.23,23.1,7,-13.51
-0.19,0.06,1.16,23.66,9.87,-14.21
-0.17,0.02,1.08,19.95,12.18,-14.14
-0.16,-0.05,0.97,18.55,11.2,-13.65
-0.15,-0.09,0.88,19.88,7.42,-12.74
-0.13,-0.08,0.83,15.75,3.36,-10.85
-0.12,-0.11,0.8,9.73,-2.59,-9.17
-0.11,-0.09,0.79,3.85,-8.26,-7.84
-0.12,-0.07,0.85,-1.54,-12.81,-5.88
-0.12,-0.07,0.93,-6.3,-15.4,-4.69
-0.13,-0.05,0.99,-7.21,-15.19,-4.13
-0.13,-0.02,1.05,-7.28,-13.86,-3.71
-0.13,0,1.08,-4.97,-11.41,-4.13
-0.13,0.02,1.1,-2.45,-7.28,-4.27
-0.13,0.02,1.08,-2.52,-3.5,-4.62
-0.1,-0.12,1.12,-6.51,-7.49,16.59
-0.08,-0.11,1.16,-4.97,-7.91,14.56
-0.07,-0.1,1.21,-3.5,-7.42,13.02
-0.08,-0.09,1.27,-2.38,-5.88,11.83
-0.09,-0.08,1.31,0.35,-3.08,10.71
-0.1,-0.07,1.32,3.92,0.14,9.8
-0.12,-0.08,1.31,8.54,3.71,9.52
-0.14,-0.07,1.27,14.56,6.23,9.87
-0.14,-0.04,1.19,15.89,8.05,10.85
-0.14,-0.06,1.12,17.22,7.91,12.18
-0.12,-0.09,1.05,15.19,5.95,13.72
-0.1,-0.11,0.96,14.42,2.03,15.54
-0.09,-0.13,0.92,14.14,-2.94,17.92
-0.07,-0.12,0.92,11.62,-8.82,19.81
-0.06,-0.13,0.91,7.49,-13.09,21.7
-0.05,-0.12,0.94,4.2,-17.08,23.73
-0.04,-0.1,0.97,0.21,-20.37,24.85
-0.03,-0.08,1.01,-2.73,-21.63,25.27
-0.02,-0.06,1.06,-3.64,-21.42,24.85
-0.02,-0.03,1.07,-3.64,-19.95,23.38
-0.02,-0.02,1.09,-2.59,-17.57,21.7
-0.01,0,1.1,-0.42,-14.07,19.39
-0.01,0.02,1.11,0.7,-10.78,16.38
-0.01,0.02,1.1,1.4,-6.09,14.14
-0.02,0.01,1.07,2.24,-1.54,12.04
-0.01,0,1.02,2.8,1.47,10.36
-0.01,-0.02,0.98,2.38,3.64,8.61
-0.02,-0.04,0.93,2.17,4.9,7.56
-0.02,-0.05,0.9,1.54,5.32,7.21
-0.03,-0.07,0.88,1.19,5.39,7.28
-0.03,-0.08,0.86,-0.14,5.6,7.98
-0.04,-0.09,0.86,-2.66,5.53,9.45
-0.04,-0.08,0.85,-6.02,5.32,10.64
-0.04,-0.09,0.85,-8.4,4.69,11.97
-0.03,-0.09,0.86,-11.2,3.78,12.81
-0.02,-0.09,0.87,-13.09,2.94,12.67
-0.02,-0.09,0.9,-12.95,2.24,12.95
-0.02,-0.08,0.92,-12.74,1.96,12.39
-0.01,-0.07,0.95,-10.99,1.68,11.55
-0.01,-0.05,0.98,-10.36,2.31,10.64
-0.01,-0.05,1,-9.52,2.8,9.1
-0.03,-0.05,1.03,-7.91,3.71,8.05
-0.03,-0.05,1.05,-6.3,4.62,7.28
-0.04,-0.06,1.05,-4.76,5.25,6.58
-0.05,-0.07,1.05,-2.52,5.25,6.51
-0.05,-0.09,1.03,-1.19,4.83,7.21
-0.06,-0.11,1.02,0.49,3.22,8.05
-0.06,-0.11,1.03,2.31,0.84,9.45
-0.06,-0.1,1.05,2.52,-1.47,10.5
-0.07,-0.1,1.06,3.08,-3.5,12.11
-0.08,-0.08,1.09,3.01,-4.9,13.93
-0.09,-0.06,1.11,2.52,-6.09,14.91
-0.08,-0.05,1.12,0.35,-6.65,15.96
-0.06,-0.06,1.09,-2.45,-7.63,16.73
-0.06,-0.07,1.06,-2.94,-11.06,17.08
-0.06,-0.07,1.06,-4.76,-13.44,17.08
-0.05,-0.07,1.05,-6.23,-15.26,17.08
-0.05,-0.08,1.05,-7.35,-18.2,16.94
-0.05,-0.07,1.06,-10.43,-19.25,16.45
-0.06,-0.05,1.11,-11.83,-19.18,16.38
-0.08,-0.02,1.17,-10.85,-17.5,16.1
-0.1,0.01,1.24,-10.36,-12.04,16.38
-0.12,0.02,1.28,-8.82,-6.44,16.1
-0.11,-0.12,1.27,-5.11,-0.91,16.03
-0.1,-0.01,1.23,-2.24,5.11,16.1
-0.09,-0.03,1.14,-2.38,8.33,16.73
-0.07,-0.08,1.09,-2.24,9.31,17.43
-0.07,-0.1,1.04,-3.01,8.89,18.97
-0.07,-0.12,1.01,-3.22,7.7,20.37
-0.07,-0.12,0.99,-2.87,6.23,22.61
-0.07,-0.1,1,-3.29,4.41,23.94
-0.07,-0.07,1.01,-4.55,2.59,24.85
-0.08,-0.05,1.05,-4.9,1.33,25.55
-0.09,-0.02,1.07,-6.23,1.12,26.32
-0.11,-0.03,1.08,-6.86,1.12,26.74
-0.12,-0.03,1.08,-5.18,0.98,27.44
-0.13,-0.03,1.07,-3.99,1.61,28.63
-0.13,-0.04,1.05,-2.45,1.47,30.17
-0.14,-0.04,1.03,-1.54,0.63,31.71
-0.13,-0.05,1.01,-1.96,-0.35,33.95
-0.12,-0.06,0.99,-2.52,-2.52,36.12
-0.12,-0.07,0.98,-3.64,-4.62,38.22
-0.12,-0.08,0.98,-4.97,-6.93,41.02
-0.12,-0.11,0.97,-5.88,-9.03,44.66
-0.13,-0.12,0.96,-6.23,-12.11,47.88
-0.13,-0.12,0.96,-6.02,-14.28,51.1
-0.12,-0.11,0.96,-6.58,-16.03,54.39
-0.11,-0.1,0.96,-7.63,-17.92,56.35
-0.09,-0.09,0.96,-8.82,-19.32,57.89
-0.08,-0.09,0.96,-9.87,-20.37,58.94
-0.07,-0.09,0.96,-10.5,-21.35,59.36
-0.05,-0.09,0.97,-10.36,-22.05,59.78
-0.05,-0.08,0.99,-10.43,-22.05,59.78
-0.06,-0.08,1.01,-9.8,-21.49,59.99
-0.06,-0.08,1.03,-9.59,-19.81,60.55
-0.08,-0.08,1.04,-9.52,-18.13,61.04
-0.09,-0.08,1.06,-8.47,-16.31,62.16
-0.09,-0.09,1.07,-7.7,-14.21,63.63
-0.1,-0.08,1.06,-6.93,-11.62,65.1
-0.1,-0.09,1.05,-6.65,-10.01,67.34
-0.11,-0.09,1.04,-6.86,-9.03,69.37
-0.11,-0.09,1.03,-7.63,-8.4,71.47
-0.1,-0.1,1.03,-8.61,-8.05,73.85
-0.1,-0.1,1.04,-8.61,-7.91,75.74
-0.09,-0.09,1.05,-9.17,-7.84,77.49
-0.1,-0.07,1.06,-9.52,-7.63,78.61
-0.1,-0.05,1.07,-9.73,-7.56,79.38
-0.1,-0.03,1.08,-10.01,-7.14,79.38
-0.1,-0.02,1.08,-11.13,-6.3,79.59
-0.09,-0.02,1.06,-12.11,-5.88,79.52
-0.09,-0.03,1.05,-12.53,-6.09,79.24
-0.09,-0.05,1.05,-12.95,-5.67,79.31
-0.09,-0.05,1.05,-12.32,-5.6,79.45
-0.1,-0.04,1.06,-12.11,-4.76,80.08
-0.11,-0.04,1.05,-13.09,-3.43,80.85
-0.11,-0.05,1.03,-13.79,-2.94,82.04
-0.1,-0.06,1.02,-15.4,-2.24,83.16
-0.1,-0.07,1.03,-15.82,-2.24,84.35
-0.09,-0.08,1.04,-15.47,-1.54,85.96
-0.09,-0.08,1.04,-15.26,-0.56,86.94
-0.08,-0.08,1.04,-13.86,-0.21,88.06
-0.07,-0.07,1.05,-14.14,0.49,88.55
-0.07,-0.06,1.06,-13.23,1.12,89.32
-0.07,-0.05,1.07,-12.32,2.31,89.81
-0.07,-0.04,1.08,-11.06,3.57,89.74
-0.07,-0.02,1.07,-9.24,4.27,89.53
-0.07,0,1.06,-8.12,5.32,89.04
-0.06,0,1.04,-8.19,5.81,88.55
-0.06,0,1.01,-7.49,5.67,88.06
-0.05,-0.02,1,-7.91,5.53,87.08
-0.04,-0.04,0.98,-7.14,4.62,86.59
-0.04,-0.04,0.98,-6.65,3.5,86.03
-0.03,-0.03,0.98,-8.12,2.45,85.26
-0.03,-0.02,0.99,-8.75,0.7,84.28
-0.03,-0.01,1.01,-10.92,-0.35,83.02
-0.02,-0.01,1.03,-12.04,-0.98,81.76
-0.03,-0.02,1.03,-11.06,-2.03,80.29
-0.03,-0.02,1.05,-10.08,-2.38,79.03
-0.03,-0.03,1.04,-8.33,-2.94,78.05
-0.04,-0.03,1.04,-7,-3.85,77.07
-0.04,-0.02,1.05,-6.93,-3.92,76.3
-0.05,-0.02,1.05,-7,-4.48,75.95
-0.06,-0.03,1.05,-6.65,-5.04,75.81
-0.06,-0.04,1.05,-6.3,-5.32,76.16
-0.06,-0.06,1.02,-5.74,-6.3,76.37
-0.06,-0.08,1.01,-3.92,-8.33,77.14
-0.05,-0.07,1.02,-3.29,-10.15,77.84
-0.05,-0.07,1,-3.64,-11.76,79.17
-0.05,-0.07,1.01,-2.8,-14.77,80.01
-0.04,-0.07,1.03,-3.78,-16.03,81.2
-0.04,-0.08,1.04,-3.71,-17.29,82.25
-0.03,-0.07,1.04,-3.43,-18.34,83.16
-0.03,-0.07,1.05,-2.87,-18.83,83.79
-0.03,-0.08,1.06,-2.1,-19.25,83.86
-0.02,-0.07,1.06,-2.1,-19.11,84.28
-0.02,-0.06,1.06,-1.61,-19.53,84
-0.01,-0.06,1.07,-1.61,-19.39,83.44
-0.01,-0.05,1.08,-1.12,-19.11,82.74
0,-0.04,1.09,-0.28,-18.41,82.04
-0.01,-0.03,1.1,-0.49,-17.15,81.06
-0.01,-0.03,1.1,-0.77,-15.89,80.15
-0.02,-0.03,1.1,-1.12,-14.7,79.59
-0.03,-0.04,1.1,-1.54,-13.3,79.24
-0.03,-0.04,1.08,-2.24,-12.53,78.89
-0.03,-0.04,1.07,-2.94,-12.11,78.82
-0.04,-0.05,1.05,-3.92,-12.32,79.17
-0.04,-0.05,1.04,-5.53,-12.6,79.8
-0.05,-0.05,1.04,-7.07,-13.16,80.64
-0.06,-0.06,1.04,-8.4,-13.3,81.69
-0.06,-0.05,1.05,-9.17,-13.44,82.32
-0.06,-0.04,1.06,-11.13,-13.3,82.74
-0.06,-0.03,1.07,-12.74,-13.44,82.46
-0.06,-0.02,1.07,-14.07,-13.02,81.76
-0.07,-0.03,1.08,-15.12,-12.67,80.71
-0.07,-0.04,1.09,-14.42,-12.25,79.66
-0.07,-0.02,1.1,-14.21,-11.48,78.12
-0.07,-0.02,1.1,-13.58,-10.5,76.44
-0.08,0,1.1,-14.21,-10.01,74.34
-0.08,0.02,1.08,-15.82,-9.59,71.54
-0.08,0.02,1.06,-17.57,-9.17,69.72
-0.09,0,1.06,-18.41,-9.17,68.11
-0.11,-0.02,1.04,-18.13,-9.24,66.99
-0.11,-0.03,1.02,-18.97,-8.96,66.01
-0.12,-0.03,1.02,-17.29,-9.87,65.31
-0.11,-0.02,1.03,-18.97,-9.73,64.89
-0.11,-0.02,1.02,-21,-9.45,63.98
-0.11,-0.01,1.03,-22.12,-10.43,62.86
-0.11,-0.02,1.05,-24.71,-9.94,62.16
-0.11,-0.03,1.04,-24.57,-10.15,61.25
-0.12,-0.04,1.06,-23.66,-10.43,59.99
-0.12,-0.04,1.06,-23.52,-9.52,59.01
-0.12,-0.04,1.05,-23.24,-9.52,58.1
-0.12,-0.03,1.04,-23.94,-9.87,56.7
-0.11,-0.03,1.03,-24.99,-10.99,55.51
-0.1,-0.04,1.02,-26.6,-12.04,53.9
-0.1,-0.06,1,-26.81,-13.51,52.64
-0.09,-0.07,1.01,-25.97,-15.47,50.54
-0.09,-0.07,1.03,-25.27,-16.73,49.28
-0.1,-0.08,1.04,-24.01,-17.71,47.95
-0.11,-0.06,1.08,-22.26,-18.41,46.76
-0.11,-0.05,1.1,-22.26,-18.06,45.64
-0.13,-0.06,1.08,-21.21,-18.48,45.01
-0.13,-0.07,1.08,-20.93,-17.99,44.73
-0.14,-0.11,1.06,-19.88,-18.06,45.92
-0.14,-0.15,1.04,-16.94,-19.39,47.74
-0.13,-0.16,1.02,-14.84,-20.16,50.4
-0.12,-0.18,0.99,-14.42,-21.98,54.32
-0.11,-0.19,0.98,-12.81,-23.94,57.61
-0.09,-0.15,0.99,-14.21,-24.92,60.76
-0.09,-0.14,0.98,-13.93,-25.97,62.44
-0.08,-0.12,1,-11.55,-26.95,63.28
-0.08,-0.11,1.03,-10.15,-26.32,63.77
-0.08,-0.1,1.02,-8.54,-25.97,63.63
-0.08,-0.1,1.03,-6.02,-25.55,63.56
-0.09,-0.1,1.03,-5.11,-23.87,63.7
-0.09,-0.11,1.03,-2.8,-22.26,64.33
-0.1,-0.12,1.05,-1.96,-19.67,64.96
-0.11,-0.14,1.04,0.07,-16.59,66.01
-0.11,-0.15,1.02,1.54,-14.21,67.06
-0.12,-0.16,1.02,2.94,-11.9,68.53
-0.12,-0.16,1.01,3.78,-9.59,69.72
-0.1,-0.16,1,3.57,-6.93,70.63
-0.1,-0.16,0.98,3.08,-5.32,71.54
-0.1,-0.16,0.97,3.57,-3.64,72.45
-0.1,-0.13,0.98,3.78,-2.17,72.31
-0.11,-0.12,0.96,4.34,-0.56,72.31
-0.11,-0.1,0.96,4.97,0.21,71.75
-0.11,-0.08,0.95,3.92,1.75,70.98
-0.11,-0.08,0.93,2.31,1.96,70.21
-0.11,-0.09,0.92,0.42,2.1,69.79
-0.11,-0.11,0.9,-1.19,1.68,69.51
-0.11,-0.12,0.9,-1.82,0.7,69.51
-0.11,-0.12,0.9,-2.59,-0.35,69.58
-0.11,-0.11,0.91,-3.85,-1.05,69.51
-0.11,-0.11,0.93,-5.39,-1.89,69.44
-0.11,-0.09,0.95,-7.28,-2.1,69.16
-0.11,-0.08,0.96,-9.1,-2.31,67.97
-0.11,-0.08,0.98,-10.71,-2.31,66.71
-0.12,-0.1,0.99,-11.41,-2.52,65.52
-0.13,-0.1,1.01,-10.99,-2.1,64.68
-0.14,-0.1,1.02,-11.13,-1.4,63.42
-0.16,-0.1,1.01,-11.41,-0.98,62.65
-0.17,-0.09,1.02,-12.67,-0.7,62.3
-0.18,-0.09,1.03,-14.77,-0.56,61.95
-0.19,-0.11,1.02,-16.73,-0.56,61.95
-0.19,-0.12,1.02,-18.13,-1.19,62.37
-0.19,-0.12,1.02,-19.04,-2.03,63
-0.19,-0.12,1.04,-18.76,-2.94,63.63
-0.19,-0.1,1.06,-18.48,-3.71,64.05
-0.19,-0.09,1.07,-17.99,-4.34,64.47
-0.18,-0.07,1.1,-18.62,-4.69,64.68
-0.17,-0.06,1.13,-20.16,-4.41,64.82
-0.17,-0.08,1.14,-21.35,-3.92,64.96
-0.16,-0.11,1.14,-20.23,-3.85,65.45
-0.17,-0.14,1.16,-18.9,-3.57,66.43
-0.19,-0.16,1.18,-16.45,-2.24,67.62
-0.19,-0.16,1.19,-13.44,-1.47,68.53
-0.19,-0.14,1.21,-12.95,-0.49,69.37
-0.17,-0.13,1.2,-13.37,0,69.65
-0.19,-0.12,1.21,-11.9,0,69.79
-0.21,-0.09,1.24,-8.05,1.4,70
-0.22,-0.05,1.21,-7.35,3.64,70.49
-0.22,-0.05,1.13,-5.39,3.36,70.84
-0.18,-0.04,1.06,-7.21,1.82,70.7
-0.16,-0.07,0.96,-9.8,-1.96,70.63
-0.14,-0.12,0.91,-10.36,-7.35,70.49
-0.11,-0.12,0.9,-12.53,-14.42,70.14
-0.11,-0.11,0.93,-14.63,-19.18,69.58
-0.11,-0.11,0.99,-14.7,-23.1,68.6
-0.1,-0.06,1.04,-14.84,-26.11,67.2
-0.09,-0.04,1.08,-16.17,-26.81,65.31
-0.08,-0.02,1.09,-15.96,-27.23,63
-0.08,-0.02,1.11,-14.63,-27.51,59.64
-0.08,-0.02,1.13,-12.6,-25.76,57.54
-0.08,-0.05,1.12,-9.24,-23.87,55.72
-0.08,-0.07,1.1,-5.11,-22.05,54.88
-0.09,-0.08,1.09,-2.1,-19.32,54.81
-0.09,-0.09,1.06,0.98,-17.01,54.95
-0.08,-0.05,1.04,2.66,-15.26,54.88
-0.07,-0.04,1.02,1.68,-13.3,54.18
-0.07,-0.04,0.98,1.47,-12.18,53.34
-0.07,-0.05,0.94,2.31,-12.18,52.36
-0.07,-0.05,0.92,3.08,-12.46,50.96
-0.07,-0.05,0.89,3.57,-13.44,50.19
-0.08,-0.05,0.88,3.08,-14.56,49.49
-0.09,-0.04,0.88,0.77,-15.68,48.93
-0.08,-0.03,0.88,-1.82,-16.66,48.37
-0.09,-0.04,0.89,-4.55,-17.57,48.09
-0.09,-0.05,0.9,-6.16,-18.34,48.02
-0.09,-0.06,0.93,-6.3,-18.55,47.32
-0.09,-0.06,0.94,-6.23,-18.76,46.55
-0.09,-0.06,0.96,-5.32,-18.62,45.71
-0.09,-0.05,0.99,-5.53,-18.13,44.8
-0.09,-0.04,0.99,-7.56,-17.01,43.33
-0.08,-0.04,0.99,-7.98,-16.66,41.72
-0.08,-0.04,1,-8.33,-16.17,39.41
-0.08,-0.05,0.99,-8.05,-15.89,37.38
-0.08,-0.04,1,-6.51,-16.17,35.28
-0.08,-0.05,1,-6.58,-16.1,32.76
-0.08,-0.07,1.01,-6.65,-16.73,31.36
-0.08,-0.08,1.02,-6.93,-16.8,30.38
-0.09,-0.09,1.05,-6.86,-16.8,29.54
-0.11,-0.09,1.1,-4.76,-16.17,28.7
-0.11,-0.06,1.13,-2.45,-14.42,27.65
-0.11,-0.03,1.16,-1.68,-12.6,26.53
-0.12,-0.01,1.13,-2.59,-11.2,24.85
-0.13,-0.02,1.11,-3.08,-11.27,23.52
-0.13,-0.04,1.1,-3.85,-11.48,22.75
-0.13,-0.07,1.07,-3.36,-12.25,22.33
-0.13,-0.09,1.05,-1.19,-14.14,21.91
-0.12,-0.08,1.06,-0.28,-16.31,21.35
-0.12,-0.06,1.06,-1.33,-17.57,20.44
-0.11,-0.04,1.08,-2.38,-18.97,19.18
-0.1,-0.04,1.12,-4.55,-19.04,17.99
-0.1,-0.05,1.13,-6.23,-18.13,16.17
-0.12,-0.08,1.16,-3.92,-16.8,14.77
-0.13,-0.07,1.22,1.96,-13.72,14.07
-0.15,-0.05,1.26,6.16,-8.82,13.37
-0.17,-0.01,1.23,9.17,-3.99,13.16
-0.19,0,1.19,10.99,0.77,12.67
-0.18,0.01,1.14,8.68,4.34,12.32
-0.18,-0.03,1.03,5.74,5.53,12.74
-0.17,-0.09,0.95,4.9,3.78,13.51
-0.15,-0.14,0.9,4.97,0.98,14.21
-0.14,-0.16,0.87,5.81,-2.8,15.47
-0.14,-0.13,0.88,4.97,-7.35,16.66
-0.13,-0.11,0.9,1.54,-11.83,17.43
-0.13,-0.09,0.96,-1.54,-14.63,17.43
-0.13,-0.07,1.04,-3.78,-15.61,17.5
-0.13,-0.07,1.1,-3.36,-14.91,17.08
-0.14,-0.07,1.12,-0.7,-13.37,16.52
-0.14,-0.07,1.11,2.1,-11.62,16.03
-0.14,-0.07,1.09,4.62,-10.43,15.82
-0.13,-0.07,1.07,5.6,-9.03,15.96
-0.13,-0.07,1.05,5.81,-8.54,15.96
-0.13,-0.07,1.01,5.88,-8.82,16.24
-0.13,-0.08,0.98,6.02,-9.94,16.45
-0.12,-0.1,0.94,6.72,-11.55,16.73
-0.12,-0.1,0.91,6.65,-13.86,17.22
-0.12,-0.1,0.9,5.81,-16.31,17.92
-0.13,-0.09,0.91,3.43,-18.69,18.69
-0.13,-0.08,0.92,1.26,-19.46,19.46
-0.12,-0.08,0.94,0.35,-20.37,19.81
-0.11,-0.06,0.95,-0.84,-20.37,19.6
-0.1,-0.06,0.95,-2.52,-20.16,18.97
-0.1,-0.07,0.95,-2.73,-20.09,18.13
-0.1,-0.07,0.95,-3.08,-19.74,17.15
-0.1,-0.09,0.95,-3.5,-18.9,16.38
-0.1,-0.09,0.96,-2.8,-18.2,15.61
-0.1,-0.1,0.98,-3.5,-15.96,15.26
-0.11,-0.1,0.98,-3.43,-14.21,14.77
-0.11,-0.1,1,-3.36,-11.34,14.77
-0.11,-0.11,1.01,-4.27,-8.82,14.91
-0.12,-0.13,1,-4.27,-7,15.05
-0.12,-0.15,1,-4.34,-5.39,15.82
-0.13,-0.16,1,-3.57,-3.78,16.31
-0.13,-0.15,1.01,-2.24,-2.8,16.59
-0.13,-0.14,1.02,-1.68,-1.4,17.15
-0.12,-0.13,1.01,-2.31,-0.77,17.01
-0.12,-0.13,1.02,-3.78,-0.77,16.73
-0.12,-0.13,1.03,-4.97,-1.05,16.8
-0.11,-0.15,1.04,-4.41,-1.61,16.59
-0.11,-0.15,1.06,-3.01,-1.82,16.45
-0.12,-0.14,1.07,-0.35,-2.17,16.45
-0.14,-0.11,1.11,1.54,-2.1,16.17
-0.14,-0.06,1.12,1.4,-0.56,15.82
-0.15,-0.05,1.12,-1.19,0.28,15.61
-0.14,-0.07,1.11,-2.03,0.42,14.91
-0.12,-0.12,1.09,-3.01,0.14,14.49
-0.11,-0.16,1.08,-2.94,-1.61,14.21
-0.1,-0.17,1.11,0.49,-3.22,14.63
-0.1,-0.16,1.14,0.49,-3.22,15.26
-0.1,-0.14,1.16,2.8,-4.55,15.68
-0.1,-0.1,1.2,3.92,-3.78,15.82
-0.13,-0.06,1.25,3.64,-1.82,16.24
-0.16,-0.03,1.26,3.64,1.26,16.87
-0.17,-0.02,1.21,4.48,4.97,17.36
-0.15,-0.04,1.01,4.2,6.09,17.99
-0.13,-0.08,1.03,4.2,4.69,18.48
-0.11,-0.12,0.97,5.6,0.56,18.97
-0.09,-0.12,0.96,4.62,-3.15,19.53
-0.08,-0.11,0.98,2.17,-6.09,20.09
-0.06,-0.09,1,-1.26,-8.54,20.09
-0.06,-0.08,1.04,-3.78,-10.71,19.53
-0.05,-0.05,1.07,-6.51,-11.06,18.55
-0.06,-0.04,1.08,-8.82,-9.66,17.15
-0.08,-0.04,1.09,-7.49,-8.61,15.33
-0.08,-0.02,1.1,-5.81,-6.16,12.95
-0.08,-0.01,1.09,-5.11,-2.17,11.13
-0.08,-0.01,1.05,-3.78,0,9.03
-0.07,-0.01,1.02,-3.85,1.61,6.44
-0.07,0,1.01,-4.13,3.01,3.5
-0.06,-0.01,0.99,-4.69,3.92,1.4
-0.06,-0.02,0.96,-5.25,4.2,-0.56
-0.07,-0.05,0.92,-5.6,3.78,-1.89
-0.08,-0.07,0.9,-5.6,2.38,-2.38
-0.1,-0.09,0.88,-6.3,1.33,-1.96
-0.1,-0.09,0.88,-7.21,-0.35,-1.12
-0.1,-0.1,0.87,-9.73,-1.61,0.07
-0.11,-0.11,0.86,-11.62,-3.99,0.77
-0.1,-0.11,0.87,-12.46,-5.74,1.19
-0.09,-0.11,0.88,-13.37,-7.21,1.26
-0.09,-0.1,0.88,-13.58,-9.38,0.49
-0.08,-0.09,0.89,-13.58,-10.99,-0.84
-0.08,-0.07,0.93,-13.09,-11.97,-2.52
-0.08,-0.07,0.95,-14.28,-12.04,-4.76
-0.08,-0.08,0.95,-13.79,-12.39,-7.14
-0.07,-0.09,0.97,-13.02,-12.46,-9.45
-0.07,-0.11,0.98,-11.9,-12.39,-11.34
-0.06,-0.13,1,-9.66,-12.67,-13.51
-0.07,-0.13,1.01,-7.98,-12.53,-14.42
-0.07,-0.14,1.03,-6.02,-12.32,-15.19
-0.07,-0.14,1.04,-4.9,-11.9,-15.75
-0.07,-0.15,1.06,-3.78,-11.34,-15.82
-0.07,-0.15,1.07,-1.33,-10.57,-15.89
-0.07,-0.15,1.08,0.49,-9.31,-15.96
-0.07,-0.15,1.07,3.01,-8.4,-16.1
-0.07,-0.14,1.07,5.53,-7.28,-16.24
-0.08,-0.12,1.06,7.28,-6.65,-16.73
-0.09,-0.1,1.08,9.17,-6.02,-17.92
-0.09,-0.09,1.1,10.43,-4.9,-18.83
-0.08,-0.1,1.09,10.78,-4.27,-20.02
-0.07,-0.11,1.08,11.9,-4.34,-21.42
-0.06,-0.11,1.09,12.04,-4.48,-23.73
-0.07,-0.1,1.1,12.74,-3.71,-25.62
-0.08,-0.08,1.12,13.86,-2.73,-28
-0.06,-0.07,1.13,14.77,-1.89,-32.27
-0.05,-0.04,1.15,15.96,0.28,-36.26
-0.09,-0.01,1.18,19.53,1.89,-40.81
-0.12,0.03,1.24,23.17,4.76,-44.66
-0.16,0.08,1.25,23.1,9.31,-48.23
-0.19,0.06,1.18,21.28,14.14,-49.77
-0.2,0.01,1.09,20.44,14.56,-50.33
-0.18,-0.05,0.99,17.85,13.86,-49.42
-0.19,-0.12,0.91,15.75,8.96,-47.6
-0.18,-0.16,0.86,16.31,3.71,-45.36
-0.17,-0.17,0.84,14.91,-2.73,-42.56
-0.15,-0.16,0.86,10.78,-9.17,-39.06
-0.13,-0.16,0.89,5.95,-16.31,-36.05
-0.12,-0.16,0.97,4.27,-20.3,-34.16
-0.12,-0.11,1.07,2.59,-21.56,-32.2
-0.13,-0.09,1.13,3.29,-20.93,-30.8
-0.14,-0.07,1.17,7.77,-17.64,-30.38
-0.14,-0.06,1.2,12.11,-14.21,-29.96
-0.13,-0.05,1.19,14.91,-10.08,-29.75
-0.11,-0.06,1.14,16.94,-5.81,-29.4
-0.1,-0.08,1.1,18.69,-3.71,-28.84
-0.09,-0.1,1.04,18.48,-1.89,-28.14
-0.08,-0.14,0.97,18.62,-1.82,-26.67
-0.08,-0.15,0.93,19.39,-3.57,-25.55
-0.08,-0.15,0.89,17.99,-4.97,-24.15
-0.08,-0.14,0.87,15.26,-6.86,-22.54
-0.08,-0.13,0.85,11.62,-9.59,-21.35
-0.08,-0.12,0.87,6.79,-11.69,-20.72
-0.08,-0.11,0.88,2.87,-12.39,-20.72
-0.07,-0.09,0.89,0.63,-12.74,-21.35
-0.07,-0.09,0.92,-0.84,-12.32,-22.61
-0.06,-0.08,0.92,-3.78,-11.83,-24.22
-0.06,-0.08,0.93,-5.32,-11.34,-26.32
-0.06,-0.08,0.96,-6.51,-10.01,-27.86
-0.07,-0.09,0.98,-7.7,-8.4,-29.26
-0.08,-0.1,0.99,-7.98,-6.65,-29.89
-0.08,-0.12,0.99,-8.19,-4.76,-30.1
-0.1,-0.14,0.98,-8.68,-2.66,-29.68
-0.11,-0.16,0.98,-8.33,-1.12,-28.28
-0.12,-0.18,0.98,-8.68,0.56,-25.9
-0.13,-0.19,0.99,-8.47,1.89,-23.66
-0.12,-0.19,0.99,-8.82,2.94,-21.35
-0.12,-0.19,1,-8.89,3.43,-19.18
-0.12,-0.16,1.03,-9.03,3.78,-17.29
-0.11,-0.15,1.04,-9.38,4.97,-16.03
-0.11,-0.13,1.04,-9.45,5.25,-15.61
-0.1,-0.12,1.06,-9.24,5.6,-15.75
-0.1,-0.11,1.08,-7.56,5.88,-16.45
-0.11,-0.09,1.11,-4.41,6.72,-17.57
-0.12,-0.06,1.15,-2.52,8.4,-18.62
-0.13,-0.05,1.16,-1.12,10.22,-19.74
-0.11,-0.06,1.16,17.85,11.55,-20.79
-0.1,-0.08,1.16,1.96,11.55,-21.7
-0.1,-0.09,1.2,4.06,11.55,-22.68
-0.11,-0.09,1.21,5.53,11.9,-22.89
-0.11,-0.11,1.22,7.49,11.55,-22.54
-0.1,-0.13,1.22,9.73,10.57,-21.77
-0.12,-0.14,1.23,11.83,9.45,-19.95
-0.14,-0.12,1.24,14.84,9.24,-17.92
-0.17,-0.08,1.24,17.08,9.66,-15.4
-0.19,-0.06,1.19,17.57,10.43,-12.18
-0.18,-0.05,1.13,17.01,9.31,-9.94
-0.15,-0.06,1.06,13.16,7.42,-8.47
-0.13,-0.07,0.98,11.13,3.64,-7.49
-0.11,-0.08,0.96,9.66,-0.91,-7.49
-0.08,-0.08,0.95,6.44,-5.53,-7.91
-0.06,-0.07,0.94,2.8,-9.31,-8.96
-0.04,-0.07,0.96,-0.77,-12.39,-10.85
-0.03,-0.05,0.98,-5.04,-14.7,-12.88
-0.02,-0.04,1.01,-9.17,-15.26,-15.4
-0.02,-0.02,1.04,-12.18,-14.28,-18.13
-0.03,-0.02,1.06,-13.51,-12.25,-22.05
-0.03,-0.02,1.08,-13.51,-7.98,-25.13
-0.03,-0.03,1.07,-12.6,-4.06,-28.21
-0.03,-0.03,1.04,-10.85,-0.77,-31.43
-0.03,-0.03,1.01,-10.5,3.15,-33.74
-0.03,-0.04,0.97,-10.85,6.09,-35.56
-0.04,-0.06,0.95,-9.73,7.84,-36.75
-0.06,-0.07,0.96,-8.33,9.66,-37.31
-0.07,-0.08,0.97,-6.72,12.81,-36.89
-0.08,-0.09,0.95,-4.48,14.77,-36.12
-0.09,-0.09,0.91,-3.57,15.89,-34.58
-0.09,-0.1,0.88,-1.89,15.4,-33.46
-0.1,-0.09,0.87,-1.33,14.56,-32.27
-0.09,-0.09,0.85,-1.26,13.44,-31.08
-0.09,-0.1,0.83,-0.42,11.06,-30.31
-0.1,-0.09,0.85,1.33,7.35,-29.75
-0.09,-0.07,0.89,1.75,5.6,-29.61
-0.1,-0.06,0.91,2.38,3.71,-29.61
-0.1,-0.06,0.93,1.4,1.75,-29.47
-0.11,-0.08,0.94,1.12,0.07,-29.26
-0.11,-0.11,0.96,2.24,-1.54,-28.77
-0.11,-0.11,0.98,3.57,-2.73,-28.28
-0.11,-0.12,0.99,5.25,-4.2,-27.79
-0.11,-0.11,1,7,-5.25,-27.44
-0.11,-0.1,1.03,7.7,-5.95,-27.37
-0.1,-0.08,1.07,8.26,-5.46,-27.86
-0.11,-0.07,1.1,8.33,-4.62,-28.56
-0.11,-0.06,1.12,9.03,-3.22,-29.47
-0.11,-0.06,1.14,10.5,-1.75,-30.94
-0.12,-0.06,1.14,13.23,-0.14,-32.06
-0.13,-0.06,1.15,15.75,1.33,-33.11
-0.13,-0.07,1.15,17.36,2.94,-33.88
-0.13,-0.06,1.14,18.13,4.34,-34.3
-0.12,-0.05,1.13,17.5,5.32,-34.72
-0.11,-0.06,1.12,16.1,5.95,-35.7
-0.1,-0.08,1.11,14.07,6.09,-36.75
-0.09,-0.09,1.11,12.88,4.9,-37.94
-0.08,-0.08,1.11,11.62,4.55,-39.9
-0.09,-0.06,1.11,9.38,3.99,-42.35
-0.09,-0.08,1.1,7.7,2.8,-44.31
-0.09,-0.08,1.1,6.37,1.75,-46.41
-0.11,-0.05,1.13,5.95,1.68,-48.44
-0.14,-0.02,1.15,5.74,2.8,-50.4
-0.17,0,1.17,6.72,4.34,-51.87
-0.19,0.01,1.18,5.53,6.86,-52.01
-0.2,-0.02,1.11,3.78,8.61,-51.31
-0.2,-0.08,1.06,3.5,8.12,-49.07
-0.19,-0.11,1.02,3.08,7,-46.55
-0.19,-0.12,0.96,1.19,5.25,-43.96
-0.18,-0.12,0.94,0.91,1.96,-41.09
-0.15,-0.1,0.94,-0.91,-2.1,-39.76
-0.13,-0.09,0.94,-3.85,-5.25,-39.13
-0.12,-0.07,0.98,-5.11,-7.98,-39.48
-0.13,-0.05,1.03,-5.18,-9.66,-40.88
-0.13,-0.03,1.09,-3.15,-9.03,-42.21
-0.14,-0.02,1.15,0,-7.35,-43.68
-0.15,-0.01,1.16,2.59,-3.92,-45.22
-0.16,-0.02,1.14,5.46,-0.35,-45.78
-0.16,-0.02,1.11,8.47,2.1,-46.06
-0.15,-0.04,1.04,8.47,3.85,-45.5
-0.15,-0.09,0.98,9.94,3.71,-44.24
-0.14,-0.11,0.93,11.41,2.17,-42.42
-0.14,-0.13,0.89,11.48,0,-40.53
-0.14,-0.14,0.84,10.57,-2.8,-37.8
-0.14,-0.14,0.82,8.89,-7.14,-35.49
-0.14,-0.12,0.82,5.18,-10.29,-33.6
-0.13,-0.11,0.85,1.89,-12.67,-32.06
-0.13,-0.09,0.87,-0.84,-14.42,-31.22
-0.13,-0.09,0.89,-2.59,-15.89,-31.43
-0.12,-0.08,0.91,-3.36,-16.17,-31.78
-0.12,-0.08,0.94,-3.29,-15.61,-32.97
-0.12,-0.07,0.96,-4.34,-14.28,-33.95
-0.11,-0.08,0.97,-5.04,-13.16,-35.14
-0.11,-0.09,0.98,-5.81,-11.48,-36.19
-0.11,-0.11,0.99,-5.74,-9.8,-36.96
-0.12,-0.12,1.01,-5.6,-7.14,-37.17
-0.13,-0.13,1.02,-4.76,-4.97,-36.47
-0.14,-0.14,1.02,-4.2,-2.73,-34.86
-0.15,-0.15,1.01,-4.76,-0.56,-32.97
-0.15,-0.17,0.99,-5.88,0.84,-29.96
-0.15,-0.19,0.98,-6.93,1.75,-27.3
-0.14,-0.21,0.98,-6.51,1.68,-24.78
-0.13,-0.19,1.01,-7.42,1.89,-22.75
-0.13,-0.17,1.03,-7.7,1.89,-21.21
-0.12,-0.14,1.05,-7.63,2.45,-20.72
-0.11,-0.11,1.09,-9.24,3.01,-20.86
-0.11,-0.1,1.12,-10.5,4.2,-21.63
-0.1,-0.1,1.14,-8.19,5.88,-22.82
-0.1,-0.09,1.16,-5.81,7.35,-23.73
-0.1,-0.08,1.16,-4.55,8.75,-25.2
-0.1,-0.08,1.17,-2.87,9.24,-26.74
-0.08,-0.08,1.18,-2.73,9.94,-27.44
-0.08,-0.1,1.18,-4.06,9.73,-27.79
-0.09,-0.13,1.19,-3.01,8.89,-27.44
-0.09,-0.16,1.22,-1.75,8.61,-26.04
-0.09,-0.17,1.24,2.45,8.4,-24.43
-0.1,-0.17,1.26,6.37,8.4,-22.19
-0.12,-0.12,1.28,10.29,9.24,-19.39
-0.14,-0.07,1.3,10.5,11.06,-16.8
-0.17,-0.04,1.25,8.61,13.09,-14.28
-0.17,-0.02,1.16,6.37,13.86,-11.76
-0.16,-0.07,1.08,5.25,12.74,-10.01
-0.13,-0.11,0.99,5.46,10.29,-9.17
-0.11,-0.1,0.94,6.93,6.09,-9.24
-0.09,-0.08,0.92,4.55,2.31,-9.94
-0.07,-0.06,0.9,0.07,-1.26,-11.69
-0.05,-0.03,0.92,-4.06,-4.55,-15.05
-0.02,-0.02,0.96,-10.01,-5.88,-18.13
-0.02,-0.05,0.99,-14.07,-6.23,-22.68
-0.04,-0.04,1.04,-10.78,-6.02,-26.39
-0.04,-0.02,1.1,-6.86,-2.8,-29.75
-0.06,-0.01,1.11,-4.97,1.54,-33.74
-0.07,-0.02,1.09,-2.03,5.88,-36.19
-0.07,-0.02,1.07,-1.4,9.31,-38.08
-0.08,-0.05,1.03,-1.54,11.97,-38.99
-0.09,-0.1,1.01,0.84,13.58,-38.5
-0.08,-0.12,0.98,3.5,14.42,-37.52
-0.08,-0.15,0.94,5.95,14.14,-36.12
-0.09,-0.16,0.89,8.26,12.25,-33.67
-0.09,-0.14,0.87,8.12,9.03,-31.64
-0.09,-0.13,0.85,4.55,6.09,-29.05
-0.1,-0.13,0.84,1.4,2.94,-27.23
-0.1,-0.15,0.83,-0.14,0.07,-25.13
-0.1,-0.13,0.84,-0.28,-3.92,-23.87
-0.09,-0.12,0.86,-0.84,-5.88,-23.17
-0.08,-0.1,0.86,-1.89,-7.98,-23.1
-0.08,-0.08,0.87,-3.15,-10.71,-23.94
-0.06,-0.06,0.89,-5.67,-11.97,-24.92
-0.06,-0.08,0.91,-7.14,-12.32,-26.04
-0.06,-0.09,0.93,-6.37,-12.67,-27.37
-0.06,-0.1,0.95,-5.04,-12.04,-28.49
-0.06,-0.1,0.97,-3.64,-10.85,-29.12
-0.07,-0.1,0.99,-2.66,-9.66,-29.68
-0.06,-0.08,1,-3.15,-7.56,-30.17
-0.05,-0.09,0.99,-5.11,-5.6,-30.31
-0.05,-0.12,0.99,-4.55,-4.83,-30.38
-0.05,-0.14,1.01,-3.64,-3.71,-30.1
-0.04,-0.16,1.01,-2.1,-2.1,-29.82
-0.05,-0.15,1.03,0.56,-1.4,-29.61
-0.05,-0.13,1.05,1.54,-0.14,-29.47
-0.06,-0.1,1.07,2.24,1.26,-30.24
-0.05,-0.07,1.08,0.91,2.59,-31.08
-0.05,-0.08,1.06,0.35,3.29,-32.41
-0.04,-0.07,1.05,2.24,2.94,-33.74
-0.06,-0.09,1.06,3.36,2.59,-34.65
-0.08,-0.11,1.08,6.09,1.75,-34.93
-0.09,-0.12,1.1,7.28,1.96,-34.51
-0.1,-0.14,1.1,7.07,1.89,-33.18
-0.1,-0.16,1.08,6.44,1.47,-31.64
-0.1,-0.15,1.09,6.23,1.12,-29.89
-0.1,-0.13,1.12,6.09,1.61,-29.33
-0.1,-0.11,1.14,8.33,2.17,-29.68
-0.1,-0.09,1.17,11.76,2.59,-31.5
-0.1,-0.06,1.21,14.98,4.27,-33.11
-0.12,-0.03,1.23,17.71,6.72,-34.86
-0.14,-0.01,1.22,18.97,9.03,-36.33
-0.16,-0.02,1.18,20.65,11.76,-37.03
-0.16,-0.02,1.14,21.56,13.79,-37.45
-0.14,-0.04,1.06,20.72,14.35,-37.45
-0.12,-0.07,0.98,20.23,12.67,-37.38
-0.12,-0.11,0.94,22.12,8.19,-36.96
-0.11,-0.11,0.93,19.95,5.39,-35.91
-0.11,-0.12,0.91,16.17,2.52,-34.02
-0.12,-0.15,0.92,13.37,-1.19,-31.29
-0.12,-0.15,0.97,10.71,-3.92,-28.77
-0.13,-0.15,1.01,8.05,-4.41,-26.39
-0.13,-0.14,1.06,9.17,-4.06,-23.73
-0.13,-0.11,1.08,9.03,-1.96,-22.26
-0.13,-0.1,1.06,8.26,-0.07,-21.35
-0.12,-0.08,1.04,8.4,0.84,-20.79
-0.11,-0.08,1.01,6.86,2.38,-20.72
-0.1,-0.09,0.97,5.32,2.52,-20.86
-0.08,-0.1,0.93,4.97,1.96,-21.14
-0.08,-0.11,0.9,3.5,0.7,-21.98
-0.08,-0.12,0.89,2.31,-2.1,-22.54
-0.08,-0.13,0.89,0.07,-4.06,-22.68
-0.1,-0.14,0.9,-2.24,-6.3,-21.91
-0.11,-0.16,0.92,-4.97,-7.35,-21
-0.12,-0.17,0.93,-6.44,-7.7,-19.6
-0.12,-0.17,0.94,-7.56,-7.35,-17.78
-0.12,-0.17,0.94,-8.05,-7.14,-16.59
-0.11,-0.16,0.95,-9.03,-6.93,-16.17
-0.1,-0.16,0.97,-9.1,-6.86,-15.89
-0.1,-0.16,0.99,-9.17,-5.95,-15.61
-0.11,-0.16,1,-8.75,-4.9,-15.33
-0.12,-0.17,0.99,-8.4,-3.92,-14.35
-0.12,-0.19,0.98,-8.47,-3.01,-12.18
-0.12,-0.21,0.96,-8.54,-2.31,-10.29
-0.12,-0.22,0.97,-7.84,-2.52,-8.26
-0.11,-0.22,0.99,-7.91,-2.1,-5.67
-0.12,-0.22,1.02,-7.14,-1.54,-3.36
-0.13,-0.21,1.06,-5.67,-0.28,-1.05
-0.13,-0.19,1.09,-4.97,1.19,0.91
-0.13,-0.17,1.09,-5.39,2.94,3.01
-0.13,-0.16,1.09,-5.04,4.2,4.2
-0.14,-0.14,1.11,-3.71,4.9,5.32
-0.14,-0.12,1.12,-2.52,6.16,5.88
-0.14,-0.11,1.11,-2.8,7,6.16
-0.14,-0.11,1.09,-2.87,6.65,6.44
-0.13,-0.12,1.09,-4.06,5.95,6.58
-0.11,-0.14,1.07,-4.62,4.27,6.72
-0.09,-0.14,1.09,-4.48,1.47,6.44
-0.1,-0.13,1.12,-5.18,0,6.37
-0.1,-0.14,1.15,-4.48,-1.54,6.02
-0.1,-0.13,1.18,-4.06,-2.45,5.81
-0.12,-0.13,1.21,-2.1,-2.45,6.02
-0.14,-0.12,1.25,0.84,-1.33,6.51
-0.17,-0.08,1.28,3.64,1.4,7.91
-0.18,-0.06,1.25,5.74,5.46,8.61
-0.18,-0.05,1.18,7.91,7,8.96
-0.15,-0.05,1.11,8.4,7,8.96
-0.12,-0.07,1.06,8.54,5.6,8.12
-0.1,-0.09,1.01,9.17,3.08,7.21
-0.08,-0.09,0.99,10.64,-0.28,6.16
-0.07,-0.07,1,9.73,-3.01,4.34
-0.06,-0.06,1,7.84,-5.46,2.87
-0.05,-0.05,1.01,5.67,-7.14,0.98
-0.05,-0.04,1.03,4.13,-7.91,-1.61
-0.04,-0.03,1.04,3.22,-7.84,-3.78
-0.04,-0.02,1.04,3.5,-7.07,-6.23
-0.04,-0.02,1.02,4.2,-6.37,-8.54
-0.04,-0.02,1.01,4.83,-6.02,-11.34
-0.04,-0.02,1,5.18,-4.76,-13.02
-0.05,-0.02,1,4.97,-3.57,-14.21
-0.05,-0.04,0.97,4.97,-2.24,-15.05
-0.05,-0.05,0.95,4.55,-1.4,-15.54
-0.05,-0.08,0.92,4.48,-1.19,-15.26
-0.04,-0.09,0.9,5.39,-1.47,-14.49
-0.04,-0.1,0.89,3.99,-1.54,-13.44
-0.04,-0.12,0.88,3.29,-1.61,-12.04
-0.05,-0.12,0.9,3.64,-2.03,-10.29
-0.05,-0.11,0.93,2.66,-0.7,-8.68
-0.06,-0.11,0.93,1.54,0.63,-7.28
-0.06,-0.1,0.92,0.7,1.54,-5.81
-0.06,-0.11,0.92,-0.84,2.03,-5.11
-0.05,-0.12,0.92,-0.98,2.24,-4.55
-0.05,-0.12,0.92,-1.54,2.45,-4.55
-0.05,-0.12,0.91,-1.75,2.03,-4.48
-0.04,-0.12,0.93,-2.24,1.47,-5.11
-0.04,-0.1,0.95,-3.71,1.4,-6.09
-0.03,-0.1,0.97,-4.2,0.49,-7.49
-0.02,-0.08,1,-7.14,0.49,-8.68
-0.03,-0.1,1.02,-9.31,0,-9.87
-0.04,-0.13,1.05,-8.68,-1.05,-10.78
-0.05,-0.15,1.08,-8.19,-0.56,-10.92
-0.07,-0.17,1.09,-6.72,-0.7,-10.71
-0.07,-0.16,1.11,-3.78,-1.47,-10.15
-0.07,-0.13,1.15,-1.12,-2.38,-10.57
-0.06,-0.08,1.22,0.63,-2.17,-11.34
-0.07,-0.04,1.27,0.14,-1.61,-13.09
-0.08,-0.04,1.26,-0.28,-1.12,-14.7
-0.1,-0.06,1.21,-0.21,-2.24,-15.68
-0.09,-0.11,1.15,0.42,-4.06,-15.96
-0.09,-0.15,1.1,1.4,-7,-15.75
-0.08,-0.16,1.06,2.59,-11.34,-15.47
-0.08,-0.15,1.07,3.01,-15.47,-15.19
-0.06,-0.11,1.1,0.63,-17.22,-15.68
-0.04,-0.08,1.11,-3.71,-19.88,-17.01
-0.03,-0.09,1.12,-8.47,-22.05,-18.55
-0.03,-0.11,1.14,-11.62,-23.03,-20.37
-0.04,-0.13,1.16,-10.57,-23.31,-21.56
-0.08,-0.14,1.22,-6.65,-20.79,-22.05
-0.11,-0.11,1.27,-1.05,-16.17,-21.63
-0.13,-0.06,1.28,1.89,-9.73,-20.72
-0.13,-0.02,1.25,2.66,-3.5,-20.23
-0.11,-0.03,1.17,2.03,2.17,-19.95
-0.07,-0.04,1.09,-0.56,5.46,-20.09
-0.06,-0.09,0.99,-2.38,6.3,-19.95
-0.06,-0.14,0.92,-0.35,4.83,-19.6
-0.06,-0.14,0.9,3.01,3.15,-18.76
-0.05,-0.12,0.89,3.22,1.75,-17.99
-0.06,-0.09,0.9,2.24,-0.21,-17.57
-0.06,-0.07,0.92,-17.85,-1.26,-17.43
-0.07,-0.04,0.95,-3.43,-1.19,-17.43
-0.08,-0.04,0.97,-4.9,0.21,-17.85
-0.08,-0.05,0.95,-6.02,1.82,-18.34
-0.08,-0.07,0.92,-4.06,2.45,-18.69
-0.07,-0.08,0.93,-0.98,3.57,-18.97
-0.07,-0.08,0.91,0.7,4.27,-18.97
-0.07,-0.07,0.91,0.63,4.69,-18.97
-0.07,-0.08,0.9,-1.54,4.69,-18.48
-0.06,-0.1,0.89,-3.36,4.48,-17.64
-0.07,-0.13,0.89,-3.43,3.71,-16.17
-0.08,-0.15,0.89,-2.24,3.29,-14
-0.09,-0.16,0.89,-1.19,2.59,-11.97
-0.09,-0.17,0.88,1.33,1.26,-8.75
-0.1,-0.16,0.91,1.54,0.56,-6.23
-0.1,-0.17,0.91,1.05,0.35,-2.66
-0.09,-0.17,0.91,1.68,-0.21,-0.35
-0.08,-0.17,0.91,1.68,-0.35,1.33
-0.07,-0.17,0.91,3.71,-1.47,2.66
-0.07,-0.16,0.93,4.9,-2.1,3.29
-0.07,-0.16,0.93,5.81,-3.43,3.64
-0.07,-0.15,0.94,7.28,-4.13,3.92
-0.07,-0.15,0.94,6.93,-4.69,3.92
-0.07,-0.17,0.94,7.42,-6.3,4.13
-0.05,-0.19,0.94,6.37,-7.63,4.41
-0.06,-0.21,0.95,6.37,-9.59,5.04
-0.07,-0.21,1,6.86,-10.99,6.16
-0.09,-0.2,1.04,7.07,-10.85,7.14
-0.1,-0.18,1.08,6.72,-10.22,8.05
-0.11,-0.17,1.11,3.5,-8.82,9.1
-0.12,-0.18,1.11,0.7,-7.91,10.08
-0.11,-0.18,1.13,-0.77,-7.14,11.2
-0.1,-0.2,1.12,-0.49,-6.16,11.69
-0.1,-0.18,1.12,0.56,-6.23,11.97
-0.09,-0.15,1.13,1.75,-5.46,11.76
-0.08,-0.12,1.14,1.4,-4.9,11.06
-0.07,-0.1,1.16,-1.4,-3.36,9.94
-0.06,-0.12,1.17,-3.22,-2.45,9.17
-0.04,-0.15,1.18,-3.15,-1.19,8.26
-0.04,-0.17,1.2,-2.66,0.28,7.91
-0.04,-0.2,1.21,-0.91,1.33,7.84
-0.03,-0.22,1.21,0.35,2.1,8.19
-0.03,-0.22,1.21,1.68,3.08,8.54
-0.05,-0.2,1.23,3.71,4.34,9.31
-0.08,-0.16,1.25,8.89,6.58,9.8
-0.1,-0.1,1.28,11.97,9.59,10.29
-0.11,-0.05,1.23,11.27,14.84,10.64
-0.11,-0.07,1.14,11.06,15.61,10.64
-0.09,-0.09,1.03,8.96,14.49,10.57
-0.07,-0.12,0.95,6.02,11.97,10.78
-0.06,-0.16,0.9,5.04,6.23,10.92
-0.05,-0.17,0.89,5.67,0.98,11.27
-0.04,-0.14,0.9,3.64,-3.15,11.41
-0.02,-0.11,0.91,0.42,-7.07,10.99
-0.02,-0.09,0.96,-1.75,-9.94,10.71
-0.02,-0.08,1.03,-5.04,-9.73,9.87
-0.03,-0.06,1.05,-4.69,-8.75,8.54
-0.02,-0.05,1.08,-3.71,-6.16,7.63
-0.01,-0.06,1.07,-3.5,-2.73,6.3
-0.01,-0.06,1.05,-0.7,-0.98,4.69
-0.01,-0.05,1.06,0.91,2.45,3.43
-0.02,-0.06,1.03,3.29,4.62,2.24
-0.03,-0.05,1,3.92,6.65,1.4
-0.03,-0.06,0.96,3.22,8.12,0.77
-0.04,-0.07,0.92,3.15,8.05,0.7
-0.04,-0.08,0.9,1.33,7.42,0.91
-0.05,-0.08,0.87,-0.98,6.16,1.33
-0.06,-0.09,0.85,-2.17,3.78,1.82
-0.07,-0.09,0.84,-5.11,1.61,2.24
-0.07,-0.09,0.83,-7.77,-0.7,2.52
-0.07,-0.09,0.83,-9.94,-3.15,2.24
-0.07,-0.09,0.84,-12.81,-5.81,1.4
-0.06,-0.09,0.85,-15.4,-7.91,0.07
-0.04,-0.09,0.89,-16.87,-9.73,-2.17
-0.04,-0.09,0.91,-18.41,-10.08,-3.85
-0.04,-0.11,0.96,-18.2,-10.15,-5.88
-0.04,-0.11,0.99,-17.99,-8.61,-7.21
-0.05,-0.13,1.01,-17.57,-7,-8.47
-0.05,-0.14,1.03,-15.75,-5.04,-9.87
-0.05,-0.14,1.06,-14.14,-3.29,-10.85
-0.05,-0.15,1.07,-13.16,-1.89,-11.97
-0.05,-0.16,1.08,-11.41,-0.56,-12.95
-0.07,-0.16,1.09,-8.68,0.63,-13.16
-0.07,-0.16,1.12,-4.13,1.05,-13.37
-0.09,-0.13,1.17,-0.7,1.96,-13.37
-0.09,-0.1,1.16,-0.63,4.13,-12.74
-0.1,-0.12,1.11,0.7,3.29,-12.18
-0.08,-0.13,1.08,0.7,1.47,-11.83
-0.06,-0.16,1.07,0.63,-1.05,-10.78
-0.08,-0.18,1.07,3.43,-5.81,-9.87
-0.07,-0.16,1.09,4.76,-7.91,-8.96
-0.06,-0.15,1.1,4.69,-10.64,-8.4
-0.05,-0.14,1.12,5.39,-13.58,-8.26
-0.03,-0.12,1.15,3.29,-15.4,-8.54
-0.03,-0.13,1.15,1.19,-16.73,-8.89
-0.02,-0.15,1.16,2.87,-17.99,-9.73
-0.04,-0.16,1.18,5.18,-17.99,-10.99
-0.06,-0.14,1.22,12.6,-17.01,-12.18
-0.11,-0.1,1.28,18.34,-14.07,-13.09
-0.12,-0.02,1.28,18.55,-8.68,-14.21
-0.14,-0.02,1.22,17.15,-2.45,-14.28
-0.14,-0.06,1.01,14.42,0.28,-13.72
-0.12,-0.1,1.03,13.72,1.47,-12.95
-0.1,-0.14,0.97,14.63,0.42,-12.04
-0.09,-0.16,0.93,17.01,-1.61,-11.69
-0.08,-0.13,0.9,17.99,-4.27,-11.62
-0.06,-0.09,0.9,14.63,-7,-11.55
-0.06,-0.09,0.9,7.91,-10.22,-11.97
-0.06,-0.08,0.94,1.54,-11.55,-12.11
-0.06,-0.11,0.99,-2.45,-11.13,-11.83
-0.08,-0.13,1.02,-1.68,-9.24,-11.62
-0.08,-0.1,1.06,3.78,-6.37,-11.97
-0.08,-0.06,1.07,4.55,-2.59,-12.81
-0.08,-0.05,1.03,4.06,0.7,-14.49
-0.06,-0.04,1.01,3.22,2.87,-15.61
-0.05,-0.05,0.99,-0.56,4.97,-16.73
-0.06,-0.09,0.93,-2.17,6.02,-17.5
-0.06,-0.14,0.9,0,5.25,-17.92
-0.06,-0.15,0.89,2.66,4.55,-17.71
-0.06,-0.15,0.88,3.36,3.71,-16.8
-0.07,-0.15,0.86,2.94,2.59,-15.05
-0.08,-0.14,0.86,1.12,0.77,-13.79
-0.08,-0.15,0.86,-3.5,0,-12.04
-0.09,-0.17,0.85,-6.02,-1.33,-9.73
-0.09,-0.2,0.84,-6.16,-3.01,-7.84
-0.08,-0.21,0.84,-4.9,-3.85,-6.16
-0.08,-0.22,0.85,-2.87,-5.46,-4.69
-0.07,-0.19,0.89,-1.26,-6.51,-3.29
-0.06,-0.16,0.91,-0.49,-5.53,-3.08
-0.06,-0.14,0.94,-1.12,-4.48,-3.15
-0.06,-0.14,0.97,-1.54,-3.22,-3.57
-0.07,-0.16,0.97,-2.38,-1.47,-3.36
-0.07,-0.19,0.96,0.28,-1.05,-3.08
-0.07,-0.21,0.98,3.15,-0.56,-2.31
-0.08,-0.23,0.99,6.16,0.28,-0.77
-0.08,-0.22,1,8.26,0.98,0.84
-0.1,-0.22,1.01,8.12,1.19,3.43
-0.09,-0.2,1.03,5.46,1.82,4.97
-0.09,-0.21,1.03,2.73,1.96,7
-0.08,-0.22,1.04,2.31,1.05,7.7
-0.07,-0.22,1.06,2.03,0.91,8.68
-0.06,-0.22,1.08,2.52,0.42,9.03
-0.06,-0.2,1.1,5.18,0.07,8.54
-0.06,-0.15,1.17,7.28,0.21,7.35
-0.04,-0.09,1.22,4.9,3.36,5.81
-0.03,-0.1,1.22,3.43,4.9,3.78
-0.03,-0.1,1.25,5.67,5.74,1.47
-0.02,-0.1,1.27,5.39,7.56,-1.19
-0.02,-0.15,1.25,5.95,9.17,-2.31
-0.04,-0.17,1.26,11.76,9.52,-2.8
-0.07,-0.15,1.32,16.03,11.2,-2.45
-0.11,-0.1,1.35,20.65,15.4,-1.4
-0.16,-0.04,1.34,20.3,19.32,0.21
-0.18,-0.03,1.24,18.34,22.19,2.03
-0.16,-0.07,1.14,14.49,22.47,4.48
-0.12,-0.13,1.03,11.55,19.67,6.58
-0.12,-0.18,0.94,13.44,13.23,8.47
-0.1,-0.18,0.91,13.51,7,10.78
-0.08,-0.15,0.91,8.96,-0.42,12.67
-0.08,-0.13,0.92,1.89,-6.86,14.07
-0.05,-0.1,0.98,-5.25,-11.34,15.12
-0.05,-0.1,1.02,-12.46,-14.56,15.68
-0.04,-0.11,1.04,-14.21,-17.36,15.33
-0.03,-0.11,1.08,-11.9,-18.13,14.63
-0.03,-0.08,1.11,-9.8,-17.15,13.16
-0.03,-0.05,1.11,-8.4,-15.26,11.97
-0.03,-0.02,1.1,-7.49,-13.23,10.22
-0.03,0,1.1,-8.89,-10.43,8.26
-0.03,-0.01,1.08,-9.8,-6.93,6.02
-0.04,-0.04,1.05,-8.47,-4.55,4.41
-0.04,-0.07,1,-6.09,-2.73,3.01
-0.05,-0.09,0.95,-3.92,-1.96,2.45
-0.06,-0.1,0.91,-3.85,-2.03,2.52
-0.07,-0.1,0.87,-4.9,-3.22,3.22
-0.07,-0.1,0.86,-6.79,-4.9,4.13
-0.06,-0.11,0.85,-9.8,-5.95,5.25
-0.06,-0.12,0.84,-11.34,-7.77,5.67
-0.05,-0.12,0.84,-11.9,-9.24,5.32
-0.03,-0.1,0.86,-13.37,-10.22,4.55
-0.02,-0.09,0.86,-15.12,-11.34,3.08
-0.02,-0.09,0.89,-16.45,-11.83,1.47
-0.02,-0.09,0.92,-17.64,-11.55,-0.42
-0.02,-0.09,0.96,-16.66,-10.57,-2.66
-0.03,-0.07,0.98,-15.54,-8.47,-4.83
-0.04,-0.09,1,-14.07,-6.86,-6.44
-0.05,-0.09,1.01,-12.46,-5.74,-7.49
-0.05,-0.1,1.02,-12.04,-3.71,-8.26
-0.06,-0.12,1.03,-10.92,-1.54,-8.68
-0.08,-0.13,1.05,-7.7,-0.07,-8.47
-0.09,-0.13,1.09,-3.43,1.61,-8.05
-0.1,-0.11,1.11,-0.35,3.64,-7.63
-0.1,-0.1,1.12,2.24,5.18,-7.49
-0.1,-0.09,1.11,4.55,5.6,-7.49
-0.09,-0.09,1.11,7.07,5.46,-7.91
-0.09,-0.1,1.11,9.45,4.9,-7.77
-0.09,-0.13,1.09,12.18,4.2,-7.77
-0.1,-0.13,1.11,14.77,2.52,-7.63
-0.09,-0.12,1.13,14.21,2.87,-7.84
-0.09,-0.15,1.12,12.74,1.89,-8.54
-0.08,-0.15,1.14,12.88,0.63,-9.45
-0.07,-0.16,1.16,12.18,1.4,-10.99
-0.06,-0.16,1.16,14.35,1.68,-13.79
-0.06,-0.14,1.17,16.94,2.03,-16.66
-0.07,-0.09,1.2,20.3,2.59,-20.44
-0.08,-0.04,1.23,19.32,4.69,-24.71
-0.12,-0.04,1.2,14.91,8.75,-27.16
-0.15,-0.07,1.14,15.12,9.66,-28.84
-0.16,-0.09,1.1,13.93,10.85,-29.47
-0.16,-0.14,1.03,11.2,11.41,-29.12
-0.16,-0.19,0.95,12.32,8.54,-28.56
-0.15,-0.19,0.92,14.63,4.9,-27.44
-0.14,-0.14,0.93,11.9,1.96,-26.39
-0.13,-0.12,0.92,8.4,-1.68,-25.97
-0.11,-0.1,0.92,3.01,-4.76,-26.04
-0.1,-0.11,0.92,-1.47,-7.63,-26.18
-0.1,-0.14,0.92,-2.38,-10.01,-26.18
-0.11,-0.14,0.96,-1.61,-11.76,-25.83
-0.12,-0.14,1.12,2.94,-11.76,-25.27
-0.11,-0.12,1.05,6.65,-10.22,-24.29
-0.11,-0.08,1.07,8.19,-6.58,-23.52
-0.1,-0.07,1.07,8.89,-4.2,-22.61
-0.1,-0.07,1.05,8.75,-1.4,-21.42
-0.09,-0.1,1.01,9.1,0,-19.6
-0.09,-0.13,0.97,9.94,1.4,-17.71
-0.09,-0.17,0.91,11.48,1.05,-14.84
-0.09,-0.17,0.87,13.02,-1.26,-12.46
-0.09,-0.16,0.85,11.41,-3.15,-9.8
-0.09,-0.15,0.83,8.61,-5.95,-7.28
-0.08,-0.14,0.83,3.29,-8.68,-5.46
-0.07,-0.13,0.83,-0.63,-10.29,-4.2
-0.07,-0.13,0.84,-2.73,-12.39,-3.78
-0.11,-0.11,0.83,-20.37,-7.84,-23.17
-0.11,-0.1,0.89,-20.58,-9.66,-24.08
-0.11,-0.09,0.91,-20.72,-10.43,-25.41
-0.1,-0.1,0.94,-19.95,-10.5,-27.09
-0.11,-0.12,0.96,-18.06,-10.08,-28.14
-0.11,-0.14,0.98,-14.7,-9.31,-28.35
-0.13,-0.17,0.98,-11.76,-7.98,-28.42
-0.13,-0.18,0.99,-8.05,-7.21,-27.58
-0.14,-0.19,1,-5.74,-6.16,-26.18
-0.15,-0.19,0.99,-4.97,-5.25,-24.71
-0.14,-0.18,1,-3.22,-4.76,-23.73
-0.14,-0.18,1,-2.03,-4.41,-22.54
-0.15,-0.18,1.01,0,-4.76,-21.49
-0.15,-0.18,1.04,1.89,-4.34,-20.58
-0.15,-0.19,1.06,4.06,-3.71,-19.46
-0.15,-0.19,1.07,6.86,-3.15,-18.62
-0.14,-0.15,1.1,9.45,-2.45,-18.97
-0.13,-0.12,1.13,10.08,-1.26,-20.09
-0.11,-0.09,1.15,8.82,-0.28,-22.33
-0.09,-0.1,1.15,7.84,0.07,-25.9
-0.08,-0.14,1.14,7.84,-0.35,-28.91
-0.09,-0.17,1.15,8.05,-0.56,-31.29
-0.1,-0.2,1.17,10.15,-0.7,-32.97
-0.11,-0.2,1.17,12.18,0.35,-34.44
-0.11,-0.17,1.18,12.95,1.75,-35.77
-0.14,-0.13,1.21,15.19,3.36,-37.73
-0.19,-0.07,1.25,17.57,7.63,-38.92
-0.21,-0.03,1.27,14.56,13.09,-39.76
-0.22,-0.07,1.14,13.79,16.59,-40.32
-0.21,-0.12,1.05,13.79,16.73,-40.18
-0.21,-0.16,0.96,12.53,15.47,-39.06
-0.21,-0.2,0.92,12.25,12.11,-37.38
-0.21,-0.22,0.89,11.9,9.31,-34.93
-0.2,-0.22,0.88,10.15,5.53,-32.62
-0.19,-0.2,0.91,6.65,2.1,-30.38
-0.18,-0.19,0.95,3.99,0.42,-28.98
-0.17,-0.17,1.01,2.45,0.56,-28.14
-0.17,-0.16,1.08,2.66,2.94,-27.23
-0.17,-0.15,1.1,4.13,7.49,-27.02
-0.15,-0.14,1.09,7.28,11.55,-27.23
-0.15,-0.14,1.06,10.22,15.96,-27.51
-0.13,-0.12,1.04,12.25,18.41,-28.63
-0.11,-0.11,0.98,10.99,20.44,-30.1
-0.11,-0.14,0.93,10.5,20.86,-31.85
-0.11,-0.17,0.89,10.64,19.74,-32.83
-0.11,-0.18,0.85,9.66,17.71,-33.25
-0.12,-0.2,0.82,9.17,15.19,-33.11
-0.13,-0.2,0.8,7.7,11.27,-32.06
-0.13,-0.19,0.79,4.34,8.12,-31.29
-0.14,-0.18,0.79,0.77,5.11,-30.66
-0.13,-0.18,0.8,-1.82,1.82,-30.17
-0.13,-0.18,0.81,-3.99,-1.26,-30.1
-0.14,-0.18,0.82,-5.04,-3.99,-29.89
-0.13,-0.18,0.85,-5.95,-6.23,-29.89
-0.14,-0.19,0.86,-6.93,-7.49,-29.54
-0.14,-0.19,0.9,-5.95,-8.61,-29.05
-0.14,-0.18,0.95,-5.46,-7.42,-28.35
-0.15,-0.19,0.97,-5.46,-6.09,-27.23
-0.15,-0.2,0.98,-4.34,-4.97,-26.25
-0.16,-0.22,0.99,-3.92,-3.57,-24.08
-0.17,-0.24,0.99,-3.15,-2.1,-22.12
-0.18,-0.25,0.99,-1.75,-0.56,-19.39
-0.18,-0.25,0.98,-0.77,0.56,-15.96
-0.18,-0.25,0.97,-0.77,0.7,-13.44
-0.15,-0.26,0.96,-1.96,0.14,-10.78
-0.13,-0.27,0.96,-3.71,-1.4,-8.75
-0.12,-0.27,0.99,-4.27,-3.43,-6.65
-0.12,-0.27,1.02,-5.88,-5.04,-5.46
-0.12,-0.26,1.04,-5.67,-6.23,-4.55
-0.13,-0.24,1.07,-4.83,-7.21,-4.2
-0.14,-0.19,1.11,-3.64,-7.21,-4.34
-0.15,-0.16,1.14,-4.76,-5.81,-4.76
-0.15,-0.16,1.13,-5.81,-4.76,-5.6
-0.13,-0.19,1.12,-5.67,-4.9,-7.07
-0.11,-0.21,1.12,-5.6,-6.16,-8.26
-0.1,-0.25,1.14,-5.11,-7.14,-9.59
-0.09,-0.28,1.16,-3.92,-8.75,-9.94
-0.09,-0.29,1.2,-2.1,-9.45,-10.01
-0.1,-0.28,1.27,0.7,-9.1,-9.8
-0.13,-0.25,1.33,5.53,-7.14,-9.24
-0.16,-0.2,1.41,11.76,-2.31,-8.19
-0.2,-0.15,1.42,14.91,4.27,-6.72
-0.23,-0.11,1.33,17.29,10.43,-4.83
-0.22,-0.1,1.2,16.17,12.95,-3.08
-0.2,-0.14,1.06,12.11,13.02,-1.05
-0.18,-0.21,0.92,10.71,8.05,0.84
-0.15,-0.25,0.86,13.86,2.24,2.8
-0.14,-0.24,0.81,11.41,-4.62,5.39
-0.13,-0.22,0.81,7.28,-12.81,8.47
-0.1,-0.19,0.84,-2.59,-18.41,10.22
-0.09,-0.17,0.91,-9.66,-22.54,11.69
-0.08,-0.16,1,-13.51,-24.36,12.6
-0.07,-0.13,1.06,-18.2,-22.68,12.46
-0.08,-0.13,1.07,-16.17,-20.58,11.2
-0.08,-0.11,1.12,-9.66,-17.99,8.4
-0.07,-0.04,1.16,-5.74,-11.06,5.67
-0.06,0,1.15,-7.7,-4.27,2.17
-0.06,-0.01,1.1,-8.33,1.19,-1.61
-0.05,-0.03,1.04,-8.33,4.76,-6.09
-0.04,-0.06,1,-8.4,8.68,-9.1
-0.05,-0.1,0.95,-7.28,10.57,-11.2
-0.07,-0.14,0.88,-4.83,10.78,-12.81
-0.08,-0.15,0.85,-3.43,9.66,-13.16
-0.09,-0.15,0.82,-5.95,8.26,-12.46
-0.1,-0.16,0.8,-8.75,6.16,-11.27
-0.1,-0.16,0.81,-11.76,3.36,-10.43
-0.1,-0.17,0.81,-14.28,1.47,-9.52
-0.1,-0.18,0.83,-14,-0.84,-9.17
-0.09,-0.17,0.86,-11.9,-3.08,-9.45
-0.09,-0.16,0.89,-10.71,-3.5,-10.08
-0.09,-0.14,0.91,-10.5,-4.06,-11.2
-0.09,-0.13,0.93,-10.92,-3.99,-12.74
-0.1,-0.14,0.95,-10.5,-3.71,-14.14
-0.1,-0.17,0.96,-8.47,-3.22,-15.54
-0.1,-0.18,0.96,-5.11,-3.08,-16.52
-0.1,-0.2,0.96,-0.63,-3.22,-17.22
-0.11,-0.2,0.97,3.15,-3.43,-17.5
-0.11,-0.18,0.99,5.11,-3.43,-17.64
-0.11,-0.18,1,6.09,-3.08,-17.71
-0.11,-0.17,1.02,7.42,-2.87,-17.71
-0.12,-0.18,1.05,8.82,-2.59,-17.99
-0.13,-0.18,1.07,10.5,-1.96,-18.13
-0.13,-0.18,1.08,13.79,-1.4,-17.92
-0.14,-0.18,1.1,16.59,-0.56,-17.71
-0.14,-0.19,1.11,18.97,0.42,-17.29
-0.14,-0.18,1.12,20.37,1.4,-16.94
-0.14,-0.16,1.13,20.93,2.17,-16.87
-0.13,-0.14,1.14,19.67,2.94,-17.64
-0.13,-0.14,1.13,16.59,3.08,-18.9
-0.11,-0.15,1.11,13.65,2.17,-21
-0.11,-0.19,1.1,10.99,0.14,-23.03
-0.1,-0.21,1.11,8.89,-1.68,-24.92
-0.1,-0.23,1.13,8.26,-3.15,-27.09
-0.1,-0.2,1.16,8.19,-4.2,-29.89
-0.13,-0.17,1.22,10.64,-3.64,-32.9
-0.15,-0.06,1.32,13.44,-1.4,-37.03
-0.19,-0.01,1.36,10.5,5.67,-39.55
-0.21,-0.01,1.28,9.17,10.71,-42
-0.21,-0.03,1.18,9.24,12.88,-43.68
-0.2,-0.1,1.08,6.3,15.19,-44.45
-0.19,-0.17,0.95,7.91,13.65,-43.96
-0.19,-0.19,0.91,12.81,8.75,-43.68
-0.17,-0.16,0.91,10.85,6.16,-43.26
-0.17,-0.15,0.9,8.68,1.96,-42.7
-0.18,-0.13,0.95,4.48,-0.77,-42.21
-0.19,-0.11,1.01,0.84,-1.61,-41.51
-0.2,-0.11,1.05,-1.61,-1.4,-40.46
-0.22,-0.13,1.07,0.14,0.21,-39.69
-0.22,-0.11,1.09,5.67,1.96,-39.13
-0.2,-0.08,1.06,8.54,3.85,-39.13
-0.19,-0.06,1.02,8.4,4.06,-39.48
-0.18,-0.06,0.96,6.16,3.15,-40.18
-0.16,-0.08,0.92,3.36,1.05,-40.67
-0.15,-0.1,0.9,2.73,-1.75,-40.81
-0.14,-0.12,0.89,3.85,-4.13,-40.95
-0.14,-0.14,0.87,4.2,-6.65,-40.67
-0.13,-0.14,0.87,3.99,-10.15,-39.97
-0.12,-0.14,0.89,0.98,-11.62,-38.85
-0.11,-0.15,0.9,-2.59,-12.04,-37.73
-0.12,-0.17,0.92,-4.41,-11.83,-36.96
-0.1,-0.17,0.94,-5.67,-10.36,-36.75
-0.1,-0.17,0.95,-4.69,-8.89,-36.82
-0.09,-0.15,0.96,-3.29,-7.14,-38.08
-0.08,-0.14,0.96,-3.43,-3.99,-39.48
-0.08,-0.12,0.96,-3.57,-1.89,-41.37
-0.09,-0.13,0.95,-5.04,0.77,-42.7
-0.09,-0.14,0.95,-5.67,2.8,-43.61
-0.1,-0.18,0.95,-5.46,4.9,-43.82
-0.12,-0.21,0.94,-4.34,6.86,-43.4
-0.13,-0.23,0.93,-3.99,7.98,-41.58
-0.13,-0.25,0.92,-5.53,9.17,-39.9
-0.11,-0.28,0.92,-7.84,9.59,-37.45
-0.11,-0.29,0.95,-8.12,9.03,-35.7
-0.11,-0.27,0.99,-8.61,9.73,-34.23
-0.11,-0.27,1.03,-7.21,10.71,-33.53
-0.12,-0.24,1.05,-4.97,11.62,-32.9
-0.13,-0.2,1.07,-2.8,13.3,-33.11
-0.14,-0.16,1.09,-1.05,15.05,-33.67
-0.14,-0.13,1.1,-2.59,17.5,-34.86
-0.15,-0.15,1.06,-1.61,18.69,-35.91
-0.13,-0.15,1.05,0.07,18.69,-37.17
-0.12,-0.17,1.02,1.4,17.99,-38.15
-0.12,-0.16,1.02,3.5,15.75,-39.55
-0.11,-0.14,1.04,3.64,13.58,-40.6
-0.11,-0.14,1.04,1.54,11.9,-41.09
-0.1,-0.15,1.06,0.14,9.73,-41.58
-0.1,-0.15,1.09,-1.19,7.49,-41.79
-0.1,-0.14,1.13,0.98,6.58,-41.86
-0.11,-0.12,1.16,3.64,6.51,-41.72
-0.13,-0.1,1.18,6.58,6.86,-41.3
-0.13,-0.07,1.2,8.4,8.05,-40.53
-0.14,-0.07,1.19,8.96,9.03,-39.55
-0.16,-0.07,1.17,9.52,9.8,-37.66
-0.16,-0.08,1.12,8.89,9.94,-36.19
-0.16,-0.1,1.06,7.91,9.03,-34.37
-0.16,-0.12,1.01,7.91,7,-32.48
-0.14,-0.12,0.98,6.93,3.5,-31.22
-0.13,-0.11,0.95,4.97,0.56,-30.73
-0.11,-0.1,0.95,2.03,-3.5,-30.87
-0.08,-0.08,0.96,-2.8,-5.81,-32.41
-0.07,-0.08,0.99,-6.3,-7.77,-34.23
-0.06,-0.09,1.03,-8.26,-8.47,-37.1
-0.06,-0.09,1.06,-7.98,-7.56,-39.83
-0.06,-0.08,1.1,-5.67,-5.67,-42.7
-0.06,-0.06,1.12,-4.2,-2.59,-45.64
-0.06,-0.05,1.13,-2.73,1.82,-49.91
-0.06,-0.05,1.14,-1.19,5.53,-53.2
-0.05,-0.06,1.12,-0.77,8.96,-57.05
-0.06,-0.08,1.09,1.26,12.67,-59.64
-0.07,-0.1,1.05,2.59,14.28,-62.09
-0.08,-0.13,1.01,3.99,15.12,-63.35
-0.09,-0.13,0.97,5.46,14.7,-64.19
-0.1,-0.13,0.95,5.6,13.86,-64.47
-0.11,-0.13,0.94,5.39,12.32,-64.33
-0.11,-0.12,0.95,4.41,11.48,-64.05
-0.11,-0.12,0.97,3.92,10.78,-63.91
-0.11,-0.1,0.98,3.57,10.22,-64.54
-0.1,-0.09,0.98,3.08,10.01,-65.59
-0.09,-0.08,0.98,3.08,9.94,-66.78
-0.09,-0.08,0.98,2.73,9.94,-69.16
-0.08,-0.08,0.97,2.8,9.59,-71.05
-0.08,-0.09,0.99,3.57,9.87,-73.78
-0.07,-0.1,1.01,4.55,10.43,-75.74
-0.07,-0.1,1.03,5.32,10.85,-78.26
-0.06,-0.1,1.06,5.53,11.62,-80.22
-0.06,-0.1,1.08,5.39,12.25,-81.9
-0.06,-0.12,1.08,6.16,12.39,-83.93
-0.05,-0.12,1.07,7,12.11,-85.54
-0.05,-0.14,1.05,8.4,10.57,-87.85
-0.04,-0.12,1.06,10.22,9.45,-90.09
-0.04,-0.1,1.05,10.71,8.47,-92.4
-0.04,-0.08,1.05,11.41,6.51,-95.76
-0.06,-0.07,1.06,11.41,5.39,-98.21
-0.09,-0.07,1.07,12.74,4.9,-100.8
-0.11,-0.08,1.1,15.75,4.97,-101.64
-0.12,-0.09,1.11,19.53,6.86,-101.92
-0.14,-0.09,1.09,22.19,8.12,-101.43
-0.15,-0.08,1.06,22.96,9.1,-100.1
-0.14,-0.08,1.01,20.86,10.92,-98.7
-0.13,-0.09,0.95,17.78,10.92,-96.95
-0.12,-0.12,0.89,15.47,8.82,-95.9
-0.1,-0.13,0.86,12.95,6.3,-95.2
-0.09,-0.15,0.84,11.27,2.73,-94.5
-0.09,-0.12,0.87,10.43,-1.05,-94.36
-0.08,-0.09,0.92,9.1,-2.31,-94.71
-0.09,-0.05,0.99,5.88,-2.66,-95.97
-0.08,-0.02,1.03,5.46,-1.4,-97.72
-0.08,0.01,1.05,2.8,0.35,-100.45
-0.08,-0.02,1.04,1.68,2.8,-102.83
-0.09,-0.04,1.04,4.55,3.85,-104.65
-0.1,-0.08,1.04,5.81,5.81,-105.63
-0.12,-0.11,1.03,7.63,7.49,-105.42
-0.12,-0.13,1.04,10.85,8.26,-104.65
-0.12,-0.11,1.05,10.92,10.43,-103.25
-0.12,-0.11,1.05,10.64,12.04,-102.27
-0.13,-0.11,1.06,10.64,13.79,-101.08
-0.14,-0.11,1.06,10.71,15.96,-100.03
-0.15,-0.13,1.06,12.6,18.13,-98.98
-0.16,-0.13,1.06,16.17,20.23,-97.72
-0.15,-0.12,1.05,18.55,22.68,-96.81
-0.16,-0.12,1.04,20.16,23.87,-95.9
-0.14,-0.11,1.05,21.21,25.48,-95.34
-0.14,-0.11,1.06,22.05,27.16,-95.34
-0.14,-0.12,1.06,24.01,28.49,-94.99
-0.14,-0.13,1.07,26.6,29.47,-94.57
-0.14,-0.14,1.06,28,30.8,-93.38
-0.15,-0.15,1.05,28.84,31.78,-91.91
-0.16,-0.16,1.03,29.54,31.78,-89.95
-0.16,-0.16,1.01,29.47,31.78,-87.92
-0.16,-0.16,0.98,29.26,31.01,-86.24
-0.15,-0.15,0.97,29.33,29.47,-85.33
-0.15,-0.13,0.97,28.28,27.86,-84.98
-0.15,-0.12,0.95,26.53,25.69,-85.4
-0.15,-0.11,0.95,23.52,23.73,-86.1
-0.14,-0.1,0.94,20.72,21.63,-87.85
-0.14,-0.1,0.95,19.32,18.55,-89.81
-0.13,-0.09,0.98,17.85,16.52,-92.05
-0.14,-0.09,1,17.22,14.7,-94.5
-0.14,-0.09,1.02,17.15,12.74,-97.3
-0.15,-0.1,1.05,16.87,11.34,-98.7
-0.16,-0.12,1.06,15.54,10.5,-99.4
-0.17,-0.13,1.07,15.05,9.94,-99.12
-0.18,-0.15,1.06,14.63,8.96,-98.35
-0.18,-0.16,1.05,13.93,8.05,-97.3
-0.19,-0.18,1.03,13.16,6.58,-95.62
-0.19,-0.19,1.02,12.81,4.41,-93.31
-0.19,-0.19,1,11.55,1.54,-91.35
-0.19,-0.19,0.99,9.1,-1.05,-88.27
-0.19,-0.19,0.98,6.93,-3.92,-86.31
-0.19,-0.2,0.98,4.13,-5.95,-84.49
-0.18,-0.2,0.99,2.66,-7.63,-82.18
-0.18,-0.19,1.01,0.91,-9.03,-80.71
-0.18,-0.19,1.01,-0.49,-9.73,-79.59
-0.18,-0.17,1.03,-1.96,-9.66,-78.19
-0.18,-0.17,1.03,-3.5,-8.75,-77.63
-0.18,-0.17,1.04,-4.55,-7.84,-76.72
-0.18,-0.18,1.05,-5.11,-6.3,-75.46
-0.18,-0.19,1.05,-4.9,-4.2,-74.48
-0.18,-0.2,1.05,-4.62,-2.31,-72.94
-0.19,-0.2,1.04,-4.9,-0.21,-71.47
-0.19,-0.2,1.04,-6.09,1.4,-69.09
-0.19,-0.21,1.03,-7.63,3.08,-66.85
-0.2,-0.23,1.04,-8.19,3.99,-63.98
-0.21,-0.23,1.05,-7.35,5.81,-61.32
-0.21,-0.22,1.05,-6.65,7.56,-58.59
-0.22,-0.2,1.06,-5.6,8.82,-55.37
-0.21,-0.19,1.07,-7,10.22,-52.64
-0.21,-0.19,1.07,-7.63,11.06,-49.7
-0.19,-0.2,1.09,-8.4,11.62,-47.39
-0.19,-0.22,1.09,-7.98,12.46,-44.94
-0.19,-0.23,1.1,-5.67,12.74,-41.58
-0.18,-0.22,1.14,-3.64,14,-38.78
-0.18,-0.2,1.16,-1.19,16.38,-36.12
-0.16,-0.17,1.18,0.35,18.69,-34.3
-0.15,-0.12,1.19,0.35,21.56,-33.46
-0.13,-0.11,1.18,-0.49,25.2,-32.9
-0.12,-0.11,1.17,0.91,27.3,-32.97
-0.11,-0.1,1.16,3.15,29.75,-33.32
-0.11,-0.1,1.13,5.53,30.73,-33.67
-0.12,-0.08,1.11,8.05,31.08,-34.09
-0.12,-0.05,1.07,7.42,31.92,-34.16
-0.12,-0.05,1.02,4.76,31.64,-33.95
-0.11,-0.07,0.96,0.07,29.89,-33.53
-0.09,-0.1,0.9,-3.57,26.95,-33.53
-0.05,-0.13,0.87,-5.53,21.84,-33.53
-0.03,-0.12,0.89,-7.07,17.43,-34.65
-0.01,-0.1,0.91,-9.38,13.51,-35.91
-0.01,-0.09,0.96,-10.15,11.2,-37.8
0,-0.07,1.04,-9.31,10.08,-39.83
0.01,-0.04,1.09,-9.1,11.62,-42.77
0.01,-0.03,1.11,-7.91,14.7,-45.64
0,-0.03,1.12,-3.99,17.43,-48.44
0,-0.03,1.11,-0.28,20.16,-51.94
-0.01,-0.04,1.07,2.94,22.68,-54.6
-0.02,-0.06,1.03,6.16,23.24,-57.05
-0.03,-0.08,0.97,8.19,22.75,-58.73
-0.04,-0.1,0.92,10.01,20.72,-60.34
-0.05,-0.11,0.88,12.18,16.8,-61.32
-0.06,-0.12,0.86,12.74,13.23,-61.88
-0.07,-0.13,0.83,12.67,8.12,-61.81
-0.09,-0.14,0.82,12.11,2.31,-61.11
-0.1,-0.14,0.81,11.34,-2.1,-59.99
-0.11,-0.15,0.81,9.73,-6.37,-58.38
-0.12,-0.16,0.82,8.61,-11.06,-56.77
-0.12,-0.18,0.83,7.84,-14.56,-55.09
-0.12,-0.19,0.84,8.4,-18.2,-53.55
-0.12,-0.19,0.86,8.61,-20.51,-52.15
-0.11,-0.19,0.88,8.82,-22.96,-51.1
-0.1,-0.19,0.9,8.05,-23.8,-50.61
-0.1,-0.2,0.92,7.42,-24.15,-50.33
-0.09,-0.21,0.95,7.63,-23.8,-50.12
-0.08,-0.22,0.98,8.89,-22.75,-50.12
-0.08,-0.23,1.01,10.64,-20.44,-50.12
-0.08,-0.22,1.04,11.55,-18.76,-50.19
-0.09,-0.22,1.05,11.55,-16.73,-50.12
-0.09,-0.24,1.06,10.36,-14.63,-49.7
-0.1,-0.24,1.08,10.78,-12.46,-49.14
-0.11,-0.25,1.1,12.81,-10.01,-48.51
-0.12,-0.24,1.14,15.89,-7.84,-47.67
-0.12,-0.2,1.17,17.85,-4.69,-47.04
-0.12,-0.18,1.18,16.87,-1.68,-46.27
-0.12,-0.15,1.18,15.61,0.42,-46.13
-0.12,-0.13,1.2,12.18,2.45,-46.06
-0.12,-0.16,1.18,10.43,4.69,-46.34
-0.11,-0.15,1.19,12.67,5.67,-47.32
-0.1,-0.14,1.2,13.65,6.51,-48.37
-0.08,-0.13,1.2,15.26,6.44,-50.19
-0.06,-0.11,1.22,14.77,6.09,-52.08
-0.06,-0.09,1.24,12.04,5.88,-54.67
-0.06,-0.08,1.3,13.23,6.37,-56.63
-0.07,-0.05,1.34,12.11,9.66,-58.52
-0.09,-0.07,1.33,14.63,12.81,-59.57
-0.13,-0.05,1.34,21.77,14.77,-60.41
-0.16,0,1.32,23.52,19.32,-59.85
-0.17,0.02,1.22,19.88,21.91,-59.57
-0.16,0,1.12,16.1,22.26,-58.1
-0.15,-0.05,1.04,12.25,20.3,-56.7
-0.14,-0.09,0.96,10.85,16.66,-55.3
-0.14,-0.08,0.93,11.13,10.5,-53.34
-0.13,-0.05,0.91,6.58,6.09,-51.87
-0.12,-0.01,0.89,1.82,1.61,-51.38
-0.12,0.01,0.9,-6.02,-3.99,-50.75
-0.12,0.02,0.91,-12.32,-6.44,-51.03
-0.12,0,0.92,-15.75,-8.19,-51.8
-0.13,-0.01,0.96,-14.63,-9.59,-52.99
-0.12,0.01,1,-12.81,-8.33,-54.53
-0.12,0.02,1,-11.48,-6.16,-56.63
-0.1,0.01,0.99,-9.87,-4.34,-58.24
-0.09,0,0.98,-10.92,-2.17,-59.99
-0.08,-0.03,0.96,-11.27,-0.14,-60.62
-0.07,-0.08,0.94,-9.66,1.12,-60.55
-0.06,-0.12,0.91,-8.82,2.94,-59.5
-0.07,-0.16,0.86,-4.97,3.01,-57.12
-0.08,-0.18,0.84,-2.03,2.38,-54.25
-0.09,-0.18,0.83,-3.08,2.03,-51.24
-0.09,-0.18,0.82,-4.9,1.68,-47.04
-0.1,-0.19,0.81,-6.58,1.19,-43.4
-0.1,-0.2,0.81,-7.49,0.98,-40.46
-0.1,-0.19,0.82,-7,0.98,-37.59
-0.09,-0.18,0.84,-6.44,1.54,-35.98
-0.08,-0.17,0.84,-5.18,1.47,-35.21
-0.08,-0.15,0.87,-4.62,1.82,-34.72
-0.08,-0.13,0.91,-4.62,3.15,-34.72
-0.08,-0.13,0.93,-5.67,4.83,-34.3
-0.1,-0.16,0.94,-5.95,6.86,-33.11
-0.11,-0.18,0.95,-4.2,7.98,-31.64
-0.13,-0.19,0.97,-3.22,9.59,-28.7
-0.14,-0.21,0.97,-1.12,10.64,-25.76
-0.14,-0.21,0.98,-0.07,11.06,-22.19
-0.14,-0.22,0.99,0.14,11.13,-17.36
-0.14,-0.24,1.01,0.14,10.5,-13.16
-0.13,-0.24,1.02,-0.56,9.73,-7.84
-0.13,-0.24,1.03,-1.4,8.26,-3.71
-0.12,-0.24,1.05,-2.94,7,1.47
-0.1,-0.25,1.06,-3.92,4.69,4.9
-0.09,-0.26,1.1,-3.01,2.66,8.05
-0.07,-0.25,1.14,-1.4,0.98,10.36
-0.05,-0.24,1.18,-0.28,-0.7,12.95
-0.04,-0.23,1.23,2.31,-1.61,14.21
-0.04,-0.2,1.31,6.58,-1.19,15.4
-0.03,-0.18,1.36,10.15,1.26,15.68
-0.04,-0.14,1.4,14.63,4.27,15.82
-0.05,-0.12,1.42,18.76,8.47,16.17
-0.08,-0.11,1.37,22.33,12.11,16.94
-0.09,-0.11,1.3,24.78,14.35,18.2
-0.09,-0.11,1.24,27.16,16.73,19.81
-0.09,-0.13,1.16,26.67,16.59,21.91
-0.07,-0.16,1.05,27.86,14.98,23.8
-0.04,-0.15,1,26.53,11.27,25.9
-0.01,-0.14,0.95,22.26,6.3,27.09
0,-0.13,0.93,16.52,1.05,27.72
0.01,-0.12,0.95,11.2,-3.29,28
0.02,-0.1,0.98,6.86,-6.65,27.37
0.02,-0.09,1.02,5.04,-8.19,26.11
0.03,-0.06,1.07,5.11,-8.05,24.08
0.02,-0.01,1.09,4.62,-6.44,20.44
0.01,0.02,1.09,3.43,-3.64,17.01
0.01,0.04,1.09,1.47,-0.63,13.72
0,0.05,1.06,-0.7,2.73,9.66
-0.02,0.01,1.02,-0.63,5.04,7.21
-0.03,-0.02,0.96,-0.14,6.23,5.18
-0.04,-0.06,0.91,-0.21,6.79,4.9
-0.05,-0.08,0.86,-0.42,5.53,5.81
-0.05,-0.09,0.84,-2.73,3.64,7.35
-0.05,-0.11,0.81,-8.54,1.68,9.17
-0.05,-0.12,0.79,-12.67,-0.7,11.48
-0.05,-0.14,0.79,-16.1,-3.43,14.35
-0.04,-0.15,0.81,-17.85,-6.3,16.31
-0.04,-0.14,0.83,-18.76,-8.05,17.78
-0.03,-0.13,0.87,-18.9,-9.1,18.55
-0.02,-0.11,0.9,-19.11,-9.59,18.27
-0.01,-0.09,0.95,-20.3,-8.89,16.94
-0.01,-0.08,0.97,-21.28,-8.05,15.4
-0.01,-0.08,1.01,-18.76,-7.14,13.3
0,-0.08,1.05,-17.36,-5.46,10.85
0,-0.09,1.06,-14.14,-3.22,8.12
-0.02,-0.08,1.08,-9.59,-2.73,6.58
-0.04,-0.08,1.08,-8.75,-1.68,4.9
-0.05,-0.1,1.07,-6.93,-1.19,4.2
-0.06,-0.11,1.08,-5.53,-1.61,4.06
-0.06,-0.13,1.07,-4.76,-2.1,4.69
-0.07,-0.14,1.07,-2.66,-3.71,5.18
-0.07,-0.13,1.08,-1.89,-4.9,5.6
-0.07,-0.12,1.08,-1.68,-6.23,5.81
-0.06,-0.11,1.08,-0.63,-7.42,5.74
-0.05,-0.1,1.1,-0.07,-8.75,5.25
-0.04,-0.1,1.11,0.98,-9.59,3.92
-0.03,-0.1,1.12,2.24,-10.64,2.45
-0.02,-0.1,1.13,2.87,-10.85,0.7
-0.03,-0.11,1.16,4.41,-10.92,-0.77
-0.06,-0.1,1.19,6.51,-9.38,-1.33
-0.08,-0.11,1.21,6.86,-6.79,-1.05
-0.1,-0.14,1.21,11.27,-4.2,-0.91
-0.11,-0.12,1.24,14.98,-1.26,-0.98
-0.14,-0.07,1.25,18.27,2.8,-0.7
-0.15,-0.03,1.21,18.06,5.95,-0.98
-0.15,-0.03,1.11,17.5,6.93,-1.33
-0.15,-0.06,1.05,15.68,5.95,-1.82
-0.14,-0.08,0.99,14.84,3.85,-1.82
-0.15,-0.1,0.96,14.98,1.12,-1.33
-0.15,-0.09,0.96,15.33,-2.52,-0.63
-0.14,-0.09,0.97,12.11,-4.62,0.28
-0.14,-0.1,0.97,9.38,-7.28,1.4
-0.13,-0.09,1.01,6.72,-9.24,2.66
-0.13,-0.1,1.05,4.48,-9.24,3.64
-0.14,-0.1,1.08,6.09,-8.54,4.2
-0.13,-0.09,1.09,7.98,-6.44,4.9
-0.13,-0.08,1.07,8.96,-2.94,5.04
-0.13,-0.07,1.04,10.64,-1.12,4.97
-0.12,-0.06,1.01,9.59,0.49,4.55
-0.1,-0.06,0.96,7.35,2.1,3.64
-0.09,-0.08,0.91,5.67,2.1,2.73
-0.09,-0.11,0.87,5.88,1.05,1.75
-0.09,-0.12,0.86,6.23,0.07,1.47
-0.09,-0.11,0.85,4.9,-0.77,1.47
-0.09,-0.11,0.84,1.54,-2.03,2.03
-0.1,-0.11,0.85,-1.75,-3.36,2.73
-0.1,-0.11,0.84,-5.67,-4.2,3.64
-0.11,-0.13,0.84,-8.82,-5.6,4.41
-0.1,-0.13,0.85,-9.17,-7.07,4.83
-0.1,-0.12,0.87,-9.73,-8.19,4.97
-0.1,-0.11,0.88,-10.08,-9.17,4.62
-0.1,-0.09,0.92,-10.43,-9.8,3.92
-0.1,-0.07,0.94,-12.04,-9.45,2.8
-0.11,-0.08,0.96,-13.16,-9.52,1.75
-0.12,-0.1,0.98,-12.67,-9.24,1.4
-0.12,-0.11,0.98,-12.04,-8.33,1.4
-0.14,-0.14,0.99,-9.59,-8.54,2.38
-0.15,-0.14,1,-6.65,-7.98,3.36
-0.16,-0.14,0.99,-6.44,-7.49,5.18
-0.16,-0.16,0.98,-7.14,-7.63,7.7
-0.14,-0.18,0.98,-7.56,-8.33,9.66
-0.13,-0.2,1.12,-8.05,-9.03,11.83
-0.13,-0.21,1.03,-6.65,-9.45,14.35
-0.12,-0.19,1.06,-5.46,-8.61,15.89
-0.11,-0.18,1.07,-3.5,-8.12,16.45
-0.09,-0.16,1.11,-2.03,-7.77,16.38
-0.08,-0.11,1.14,-1.89,-6.58,15.75
-0.07,-0.1,1.17,-3.92,-4.2,14.91
-0.08,-0.13,1.17,-5.25,-1.89,14.07
-0.09,-0.16,1.16,-3.22,-1.05,13.79
-0.09,-0.17,1.2,-0.98,0.49,13.44
-0.11,-0.17,1.23,2.24,2.73,13.51
-0.13,-0.15,1.27,6.86,5.11,13.79
-0.13,-0.11,1.31,9.1,7.56,13.93
-0.13,-0.1,1.33,8.12,10.22,13.79
-0.15,-0.07,1.33,9.94,12.25,14
-0.16,-0.05,1.3,10.01,14.07,13.79
-0.16,-0.06,1.21,9.94,14.35,14.07
-0.14,-0.08,1.11,11.27,11.27,14.35
-0.13,-0.1,1.03,11.06,7.21,15.05
-0.11,-0.11,0.99,10.85,-0.77,15.89
-0.11,-0.1,1.12,8.61,-6.86,17.01
-0.1,-0.09,1.01,3.57,-11.41,18.55
-0.09,-0.1,1.04,2.17,-16.8,20.02
-0.08,-0.1,1.1,0,-18.76,21.77
-0.07,-0.09,1.13,-1.12,-18.83,22.82
-0.07,-0.08,1.13,-0.56,-18.83,23.87
-0.07,-0.07,1.13,0.14,-16.94,24.15
-0.07,-0.05,1.12,0.21,-14.14,23.94
-0.06,-0.05,1.09,0.49,-10.22,23.45
-0.06,-0.05,1.05,1.61,-7.91,22.19
-0.05,-0.03,1.01,1.89,-4.9,20.23
-0.04,-0.04,0.97,1.26,-1.47,18.55
-0.05,-0.04,0.93,0.63,-0.07,16.94
-0.05,-0.03,0.9,-0.42,1.26,15.47
-0.06,-0.04,0.88,-2.66,2.59,13.79
-0.07,-0.05,0.85,-4.48,3.64,12.74
-0.07,-0.05,0.82,-7.84,3.85,11.76
-0.07,-0.07,0.8,-10.29,3.71,10.92
-0.06,-0.08,0.78,-12.39,2.59,10.29
-0.06,-0.09,0.79,-15.19,1.26,9.59
-0.05,-0.09,0.8,-17.78,-0.07,9.17
-0.04,-0.1,0.82,-20.65,-1.26,8.61
-0.04,-0.1,0.87,-20.79,-2.45,8.05
-0.04,-0.1,0.93,-19.88,-1.96,7.07
-0.04,-0.09,0.96,-20.23,-1.12,6.16
-0.05,-0.09,0.96,-18.55,-1.19,4.62
-0.05,-0.08,0.98,-17.22,-1.26,3.36
-0.04,-0.09,0.98,-16.59,-1.26,2.31
-0.05,-0.11,0.99,-14.14,-2.59,1.05
-0.04,-0.12,1,-12.11,-3.36,0
-0.06,-0.14,1.01,-8.33,-5.18,-0.21
-0.07,-0.14,1.04,-4.9,-6.23,-0.28
-0.08,-0.13,1.06,-2.38,-6.44,0
-0.1,-0.13,1.08,-0.14,-6.44,0.63
-0.1,-0.12,1.1,2.52,-6.02,0.84
-0.09,-0.11,1.11,4.48,-6.02,0.7
-0.09,-0.11,1.12,7.42,-6.23,0.35
-0.09,-0.11,1.13,11.76,-6.51,-0.42
-0.09,-0.1,1.14,13.86,-7.28,-1.89
-0.07,-0.11,1.14,14.42,-8.05,-2.94
-0.06,-0.14,1.15,14.35,-8.96,-4.06
-0.06,-0.17,1.15,14.42,-10.5,-4.76
-0.08,-0.17,1.17,14.84,-11.27,-5.11
-0.1,-0.17,1.17,16.38,-11.62,-5.39
-0.09,-0.16,1.17,16.8,-11.76,-6.09
-0.1,-0.15,1.18,18.27,-12.25,-6.86
-0.12,-0.11,1.2,22.12,-11.69,-8.26
-0.15,-0.06,1.26,22.26,-9.66,-9.31
-0.18,-0.02,1.23,19.39,-5.11,-9.8
-0.2,-0.03,1.15,18.48,-1.89,-10.01
-0.19,-0.07,1.06,16.38,-0.77,-9.8
-0.17,-0.1,0.97,12.81,-1.19,-9.45
-0.16,-0.13,0.9,12.04,-4.55,-8.89
-0.14,-0.11,0.88,9.45,-8.96,-8.47
-0.13,-0.11,0.86,2.38,-12.25,-8.12
-0.11,-0.11,0.87,-2.73,-15.68,-7.84
-0.11,-0.12,0.94,-6.37,-18.13,-7.98
-0.11,-0.1,0.98,-10.29,-18.27,-8.12
-0.12,-0.09,1.06,-9.52,-16.66,-8.68
-0.11,-0.04,1.1,-7.98,-12.6,-9.66
-0.11,-0.03,1.12,-8.61,-6.72,-10.71
-0.11,-0.04,1.09,-6.51,-2.1,-11.97
-0.09,-0.04,1.05,-6.93,2.87,-12.88
-0.1,-0.07,1,-7.14,5.39,-13.37
-0.1,-0.1,0.94,-5.39,6.3,-13.65
-0.09,-0.12,0.91,-4.97,6.93,-13.16
-0.1,-0.14,0.86,-5.46,6.16,-12.25
-0.1,-0.15,0.81,-5.18,4.2,-11.13
-0.11,-0.16,0.81,-6.65,2.03,-8.89
-0.11,-0.16,0.81,-8.96,-0.14,-7
-0.11,-0.17,0.82,-10.43,-1.4,-5.04
-0.11,-0.17,0.82,-10.99,-2.38,-3.36
-0.11,-0.17,0.83,-10.5,-3.5,-1.89
-0.1,-0.16,0.84,-10.43,-4.48,-0.91
-0.09,-0.16,0.85,-10.36,-5.25,-0.49
-0.08,-0.15,0.88,-8.96,-5.88,-0.42
-0.08,-0.15,0.91,-7.56,-5.53,-0.35
-0.08,-0.14,0.94,-5.74,-4.9,-0.49
-0.09,-0.15,0.95,-4.62,-4.13,-0.42
-0.1,-0.16,0.97,-2.8,-3.57,0.07
-0.12,-0.17,0.99,0.07,-2.52,1.12
-0.13,-0.18,1.02,3.5,-1.54,2.31
-0.13,-0.17,1.02,6.37,-0.56,4.34
-0.13,-0.17,1.03,6.58,-0.21,6.23
-0.13,-0.17,1.02,5.53,-0.14,8.47
-0.13,-0.18,1.02,4.97,-1.26,10.36
-0.13,-0.19,1.02,4.13,-2.17,11.76
-0.13,-0.18,1.03,4.06,-3.64,12.81
-0.12,-0.17,1.04,3.99,-4.76,13.65
-0.12,-0.16,1.04,3.01,-6.79,14.14
-0.11,-0.13,1.08,2.03,-8.19,13.86
-0.11,-0.1,1.12,-1.82,-8.68,13.09
-0.09,-0.13,1.14,-5.6,-8.47,12.32
-0.08,-0.16,1.17,-4.69,-8.4,11.2
-0.09,-0.17,1.21,-1.96,-7.49,10.36
-0.09,-0.17,1.27,4.27,-5.81,9.8
-0.09,-0.14,1.37,7.56,-2.31,9.45
-0.11,-0.11,1.42,11.55,2.87,9.24
-0.15,-0.07,1.45,14.56,10.85,9.73
-0.18,-0.02,1.44,14.21,17.92,10.5
-0.2,-0.04,1.3,12.04,24.01,12.25
-0.19,-0.09,1.16,11.76,26.74,13.44
-0.17,-0.14,1.04,10.22,26.04,14.21
-0.16,-0.16,0.92,12.39,22.68,15.12
-0.16,-0.13,0.9,12.39,18.34,15.47
-0.14,-0.09,0.9,6.79,14.14,15.68
-0.14,-0.08,0.92,-1.89,10.22,15.54
-0.13,-0.08,0.97,-8.05,5.95,15.4
-0.11,-0.08,1.04,-14.42,4.76,14.56
-0.11,-0.1,1.09,-14.28,4.2,13.65
-0.11,-0.09,1.13,-12.6,4.55,12.53
-0.11,-0.06,1.12,-10.92,6.16,11.62
-0.11,-0.07,1.12,-9.17,6.86,10.5
-0.11,-0.07,1.11,-9.03,8.05,9.31
-0.11,-0.08,1.08,-8.54,9.87,8.61
-0.11,-0.1,1.06,-6.3,9.94,8.33
-0.11,-0.11,1.04,-4.13,10.71,7.7
-0.11,-0.1,0.99,-3.71,10.78,7.56
-0.12,-0.1,0.93,-3.36,9.17,7.35
-0.13,-0.1,0.88,-4.48,6.86,7.28
-0.13,-0.1,0.84,-7.63,4.76,7.35
-0.13,-0.11,0.79,-10.57,0.91,7.42
-0.13,-0.13,0.78,-11.55,-3.01,7.42
-0.12,-0.13,0.79,-12.25,-6.3,7.42
-0.1,-0.12,0.81,-14.21,-8.89,7
-0.1,-0.12,0.83,-15.82,-11.2,5.95
-0.1,-0.1,0.86,-17.57,-12.74,4.69
-0.09,-0.09,0.9,-19.6,-13.02,3.01
-0.1,-0.1,0.92,-19.32,-13.02,1.68
-0.09,-0.12,0.93,-18.48,-12.46,-0.21
-0.1,-0.13,0.94,-15.26,-11.76,-1.19
-0.1,-0.13,0.97,-10.78,-11.69,-1.96
-0.11,-0.13,1.01,-8.12,-11.41,-2.24
-0.11,-0.12,1.02,-5.95,-11.55,-2.24
-0.11,-0.14,1.04,-4.9,-12.67,-1.75
-0.12,-0.17,1.04,-3.15,-14.21,-0.91
-0.14,-0.17,1.04,0.56,-15.82,0.14
-0.15,-0.18,1.06,5.6,-17.78,0.98
-0.16,-0.15,1.07,10.85,-19.32,1.75
-0.16,-0.11,1.07,13.51,-20.86,1.75
-0.16,-0.08,1.07,13.72,-22.12,1.4
-0.16,-0.09,1.06,13.44,-23.03,0.7
-0.14,-0.11,1.08,14.84,-23.59,0
-0.12,-0.14,1.08,15.33,-23.03,-0.7
-0.1,-0.18,1.09,17.85,-23.24,-1.4
-0.1,-0.16,1.14,18.55,-21.63,-1.89
-0.13,-0.17,1.18,18.41,-19.11,-2.1
-0.13,-0.16,1.21,18.97,-15.54,-2.52
-0.15,-0.13,1.26,19.67,-9.31,-2.94
-0.19,-0.1,1.3,23.1,-3.22,-4.06
-0.22,-0.03,1.33,27.44,3.78,-6.02
-0.22,0.04,1.29,25.69,13.23,-8.19
-0.22,0.02,1.16,21.42,16.87,-10.5
-0.2,0,1.02,18.55,16.45,-13.09
-0.2,-0.04,0.95,14.14,14.7,-15.26
-0.19,-0.09,0.88,10.15,11.13,-16.17
-0.2,-0.11,0.84,7.91,5.6,-16.52
-0.2,-0.11,0.87,4.97,0,-15.82
-0.19,-0.09,0.92,-0.21,-4.69,-15.26
-0.18,-0.08,1,-3.64,-7.7,-14.84
-0.17,-0.05,1.09,-7.7,-7.7,-14.63
-0.18,-0.06,1.12,-9.45,-6.93,-14.91
-0.17,-0.07,1.12,-5.95,-5.95,-15.68
-0.15,-0.05,1.1,-3.92,-3.78,-16.59
-0.14,-0.08,1.05,-2.31,-2.31,-17.29
-0.13,-0.09,1.02,0.42,-1.89,-18.41
-0.12,-0.09,1.01,1.12,-1.19,-19.18
-0.11,-0.1,0.99,2.31,-0.63,-19.6
-0.12,-0.13,0.96,4.27,-1.05,-19.53
-0.12,-0.14,0.94,5.53,-1.4,-18.83
-0.13,-0.15,0.91,5.25,-2.1,-17.78
-0.14,-0.17,0.87,4.55,-3.36,-16.17
-0.14,-0.18,0.85,3.64,-4.9,-13.93
-0.15,-0.18,0.83,2.8,-7.28,-12.32
-0.14,-0.18,0.83,2.31,-9.17,-11.13
-0.14,-0.16,0.85,1.4,-10.5,-10.15
-0.14,-0.14,0.85,-0.56,-11.83,-9.94
-0.13,-0.13,0.85,-2.24,-13.09,-10.15
-0.13,-0.13,0.88,-4.06,-13.44,-10.57
-0.13,-0.14,0.9,-5.04,-13.37,-11.06
-0.14,-0.15,0.93,-5.53,-12.25,-10.85
-0.15,-0.16,0.95,-5.53,-10.85,-10.08
-0.16,-0.17,0.98,-4.62,-8.82,-9.1
-0.17,-0.16,1,-4.55,-6.37,-7.21
-0.17,-0.16,1.02,-4.9,-3.08,-5.04
-0.17,-0.16,1.02,-7.28,-0.56,-3.08
-0.16,-0.18,0.99,-8.82,0.77,-1.12
-0.16,-0.2,1,-9.17,1.4,1.33
-0.15,-0.2,1,-9.59,2.38,3.01
-0.15,-0.19,1.01,-9.45,2.17,4.55
-0.13,-0.18,1.02,-11.06,2.17,5.6
-0.13,-0.17,1.03,-13.09,1.26,6.16
-0.12,-0.15,1.05,-14.14,0.35,6.02
-0.11,-0.13,1.11,-14.7,-0.14,5.46
-0.13,-0.12,1.15,-14.42,0.21,4.55
-0.13,-0.11,1.17,-13.65,0.49,3.71
-0.13,-0.14,1.17,-13.09,0.42,3.01
-0.13,-0.17,1.18,-11.06,-0.7,3.01
-0.13,-0.18,1.22,-8.82,-0.7,3.01
-0.14,-0.19,1.24,-6.65,-0.91,3.5
-0.14,-0.2,1.25,-4.13,-1.33,4.2
-0.15,-0.19,1.25,-1.26,-1.19,5.18
-0.18,-0.17,1.28,2.66,-0.77,6.3
-0.19,-0.14,1.27,5.95,0.56,7.98
-0.18,-0.13,1.2,7.42,2.31,8.96
-0.15,-0.14,1,8.47,0.98,9.87
-0.11,-0.16,1.04,5.95,-0.21,10.57
-0.09,-0.19,0.99,7.07,-5.46,11.13
-0.07,-0.19,0.99,8.05,-9.66,11.41
-0.05,-0.19,1,6.09,-13.16,11.9
-0.05,-0.19,1.02,6.86,-16.31,11.97
-0.04,-0.16,1.06,5.88,-17.22,12.25
-0.05,-0.13,1.07,4.55,-16.73,12.32
-0.07,-0.12,1.07,3.92,-15.26,12.32
-0.1,-0.1,1.08,3.85,-12.67,12.39
-0.12,-0.09,1.08,4.2,-8.96,12.39
-0.12,-0.1,1.04,6.09,-4.13,12.11
-0.1,-0.1,0.99,7.63,-1.05,11.83
-0.08,-0.11,0.93,7.7,1.33,11.2
-0.07,-0.1,0.89,6.02,2.38,9.87
-0.06,-0.09,0.86,2.94,3.01,8.61
-0.06,-0.09,0.83,-2.59,2.87,7.49
-0.06,-0.12,0.81,-5.11,2.03,6.3
-0.06,-0.13,0.81,-5.67,0.7,5.53
-0.05,-0.13,0.83,-7.77,0.63,4.97
-0.06,-0.14,0.83,-9.1,-0.14,4.48
-0.05,-0.14,0.84,-12.18,-0.56,4.62
-0.05,-0.15,0.85,-15.33,-0.35,4.83
-0.05,-0.16,0.86,-17.5,-0.28,4.9
-0.04,-0.16,0.87,-18.34,-0.07,4.76
-0.04,-0.16,0.9,-17.57,0.21,3.78
-0.03,-0.15,0.93,-16.1,0.77,2.45
-0.02,-0.13,0.95,-14.49,1.4,1.19
-0.03,-0.12,0.96,-14.07,2.03,-0.14
-0.04,-0.13,0.96,-13.51,2.73,-1.47
-0.05,-0.15,0.97,-11.76,3.08,-2.45
-0.07,-0.17,0.98,-9.31,3.36,-2.52
-0.07,-0.18,0.99,-5.53,3.57,-2.24
-0.08,-0.19,1,-3.5,3.78,-1.54
-0.09,-0.19,1,-2.31,3.01,-0.28
-0.1,-0.2,1.01,-1.96,2.38,1.05
-0.1,-0.2,1.05,-0.77,1.61,2.45
-0.1,-0.19,1.08,1.12,1.12,4.06
-0.11,-0.19,1.1,3.01,0.77,5.04
-0.13,-0.17,1.12,6.09,0.77,5.32
-0.14,-0.14,1.15,7.77,1.05,5.46
-0.15,-0.13,1.16,7.7,1.54,5.53
-0.17,-0.13,1.15,9.03,1.05,5.46
-0.16,-0.13,1.17,8.82,1.26,4.97
-0.15,-0.15,1.14,8.4,0.7,4.06
-0.14,-0.17,1.15,8.82,-1.47,3.15
-0.14,-0.17,1.18,7.7,-2.1,2.24
-0.14,-0.18,1.18,8.47,-3.57,1.75
-0.14,-0.18,1.19,8.75,-4.69,1.19
-0.14,-0.19,1.22,9.73,-4.55,0.77
-0.16,-0.17,1.25,14.49,-3.36,-0.21
-0.18,-0.13,1.29,18.83,-0.91,-0.77
-0.2,-0.08,1.28,20.79,2.8,-2.1
-0.2,-0.07,1.21,19.81,7.77,-3.57
-0.2,-0.07,1.13,17.08,9.03,-5.04
-0.18,-0.1,1.05,13.86,9.94,-6.65
-0.18,-0.14,0.98,10.71,8.75,-7.63
-0.18,-0.18,0.9,13.02,5.32,-8.4
-0.16,-0.15,0.89,14.63,0.28,-9.17
-0.14,-0.13,0.89,10.5,-3.01,-9.38
-0.13,-0.11,0.89,5.6,-7.77,-10.08
-0.13,-0.1,0.92,-0.07,-11.27,-11.13
-0.13,-0.1,0.96,-5.53,-13.44,-11.83
-0.13,-0.12,0.97,-7.28,-14.56,-12.46
-0.12,-0.13,1,-6.16,-14.49,-13.44
-0.12,-0.12,1.01,-3.78,-13.51,-14.91
-0.11,-0.11,1.01,-1.82,-12.04,-16.38
-0.1,-0.09,1.02,-0.98,-9.87,-17.78
-0.09,-0.07,1.01,-1.82,-7.49,-19.81
-0.09,-0.09,0.99,-2.66,-4.48,-21.28
-0.09,-0.12,0.95,-2.31,-3.08,-22.61
-0.09,-0.15,0.92,-2.31,-1.54,-22.89
-0.1,-0.17,0.88,-0.35,-1.47,-22.47
-0.1,-0.18,0.85,0.49,-1.96,-21.7
-0.11,-0.19,0.84,-0.42,-2.73,-19.95
-0.11,-0.19,0.83,-1.89,-3.15,-18.06
-0.12,-0.19,0.82,-5.25,-3.5,-16.24
-0.12,-0.2,0.81,-7.49,-4.41,-14
-0.11,-0.2,0.81,-8.26,-5.67,-12.46
-0.1,-0.2,0.81,-8.75,-6.65,-11.41
-0.1,-0.18,0.83,-9.87,-7.42,-10.57
-0.09,-0.18,0.84,-10.85,-8.12,-10.01
-0.1,-0.18,0.86,-11.62,-8.47,-9.38
-0.1,-0.18,0.9,-12.32,-7.98,-8.61
-0.11,-0.2,0.92,-11.83,-6.79,-7.49
-0.11,-0.2,0.95,-10.57,-4.76,-6.02
-0.11,-0.22,0.97,-9.31,-3.01,-3.57
-0.11,-0.23,0.98,-8.4,-0.56,-1.54
-0.1,-0.24,0.98,-7.98,1.19,0.77
-0.1,-0.25,0.97,-7.91,2.03,3.01
-0.09,-0.26,0.98,-7.42,2.94,5.95
-0.08,-0.26,0.99,-7.07,3.64,7.84
-0.07,-0.27,0.99,-5.88,3.15,9.17
-0.06,-0.25,1.01,-4.13,2.31,10.15
-0.06,-0.22,1.04,-2.73,1.4,10.22
-0.07,-0.2,1.07,-0.91,0.56,9.8
-0.08,-0.17,1.13,-0.07,0.91,9.31
-0.09,-0.16,1.16,0.49,2.1,8.4
-0.1,-0.17,1.17,3.15,2.59,8.05
-0.09,-0.2,1.2,7.07,2.59,7.98
-0.11,-0.2,1.23,11.48,3.08,8.54
-0.13,-0.2,1.25,16.52,3.43,9.59
-0.14,-0.18,1.26,18.41,3.78,12.11
-0.15,-0.2,1.25,19.39,3.71,14.7
-0.18,-0.19,1.26,23.03,3.36,17.71
-0.19,-0.16,1.25,23.8,4.83,20.72
-0.2,-0.15,1.18,24.22,4.76,24.43
-0.15,-0.16,1.11,23.45,1.96,27.09
-0.12,-0.16,1.04,21.35,-1.89,28.63
-0.1,-0.16,1.01,20.93,-7.14,29.96
-0.08,-0.14,1.02,18.97,-12.46,29.89
-0.06,-0.12,1.03,16.24,-16.1,28.98
-0.05,-0.11,1.07,15.4,-18.55,27.86
-0.05,-0.07,1.11,14.63,-19.46,25.48
-0.05,-0.05,1.16,14.63,-18.48,23.17
-0.05,-0.02,1.18,14.84,-15.33,20.51
-0.06,-0.02,1.17,14.63,-11.41,17.22
-0.07,-0.02,1.13,16.59,-7.21,15.12
-0.08,-0.03,1.09,16.52,-3.64,13.51
-0.1,-0.04,1.03,16.24,-0.91,12.46
-0.11,-0.06,0.98,15.82,1.26,11.9
-0.12,-0.06,0.93,14.98,2.66,12.18
-0.13,-0.07,0.9,12.6,2.87,12.53
-0.12,-0.07,0.88,10.15,2.52,13.44
-0.11,-0.08,0.86,7,1.89,14.14
-0.11,-0.08,0.83,3.08,0.49,14.77
-0.11,-0.08,0.82,0.7,-1.54,15.33
-0.1,-0.07,0.84,-2.73,-2.73,15.75
-0.1,-0.07,0.83,-5.88,-3.92,15.4
-0.1,-0.07,0.84,-8.89,-5.32,14.84
-0.08,-0.06,0.85,-12.04,-6.02,13.58
-0.07,-0.08,0.86,-14.42,-6.79,11.69
-0.05,-0.09,0.88,-15.47,-7.35,10.08
-0.05,-0.09,0.92,-15.12,-6.58,7.7
-0.06,-0.1,0.96,-13.65,-5.67,5.6
-0.06,-0.09,1.01,-12.25,-3.78,3.92
-0.07,-0.08,1.03,-12.67,-1.4,1.75
-0.07,-0.09,1.03,-11.76,0.42,0.7
-0.08,-0.11,1.04,-10.57,1.4,-0.56
-0.08,-0.14,1.05,-8.54,2.24,-1.05
-0.08,-0.15,1.06,-4.48,2.17,-1.4
-0.09,-0.15,1.07,-1.68,2.1,-0.91
-0.1,-0.13,1.08,0.98,1.61,-0.63
-0.11,-0.1,1.1,2.1,1.19,-0.14
-0.11,-0.08,1.09,0.77,0.7,0.14
-0.12,-0.1,1.09,2.17,-0.91,0.14
-0.12,-0.1,1.12,3.71,-2.24,0.14
-0.13,-0.12,1.12,6.93,-3.36,0.28
-0.13,-0.12,1.14,10.22,-4.76,0.42
-0.11,-0.12,1.14,10.01,-5.53,0.56
-0.09,-0.13,1.13,9.52,-6.93,-0.07
-0.1,-0.12,1.16,9.66,-8.05,-0.77
-0.12,-0.12,1.19,10.22,-7.49,-1.61
-0.13,-0.11,1.19,9.87,-7.07,-2.59
-0.13,-0.14,1.18,11.83,-6.37,-3.57
-0.16,-0.13,1.2,14.42,-5.95,-4.76
-0.2,-0.09,1.21,17.71,-4.13,-5.53
-0.24,-0.03,1.21,17.85,-1.96,-6.3
-0.25,0.01,1.14,14.14,1.75,-6.86
-0.24,0,1.05,10.08,2.17,-7.63
-0.22,-0.02,0.96,7.28,0.98,-8.89
-0.21,-0.08,0.9,6.65,-1.82,-10.64
-0.19,-0.09,0.86,9.52,-7.49,-11.69
-0.18,-0.06,0.86,5.39,-12.11,-12.6
-0.17,-0.08,0.85,-0.56,-17.15,-12.88
-0.17,-0.09,0.91,-6.23,-21.14,-13.23
-0.15,-0.1,0.99,-8.75,-20.79,-13.09
-0.16,-0.13,1.04,-7.56,-19.39,-12.74
-0.16,-0.12,1.12,-1.12,-16.8,-12.81
-0.16,-0.07,1.16,4.2,-10.01,-13.09
-0.16,-0.04,1.18,9.87,-4.27,-13.16
-0.16,-0.02,1.15,11.13,1.75,-13.44
-0.15,-0.05,1.08,10.85,6.23,-13.37
-0.13,-0.09,1.01,10.71,9.45,-13.37
-0.13,-0.14,0.93,12.67,10.08,-12.81
-0.13,-0.18,0.85,17.71,8.4,-11.55
-0.13,-0.17,0.81,20.23,6.16,-10.43
-0.13,-0.16,0.77,20.09,2.38,-9.1
-0.14,-0.14,0.74,15.89,-1.61,-7.42
-0.14,-0.13,0.75,9.94,-5.81,-5.74
-0.13,-0.13,0.78,3.08,-9.03,-4.48
-0.13,-0.16,0.79,0.7,-11.2,-3.57
-0.13,-0.16,0.81,1.05,-13.58,-3.43
-0.12,-0.15,0.84,2.52,-14.21,-3.71
-0.12,-0.12,0.88,3.08,-14,-4.41
-0.11,-0.1,0.91,1.12,-13.16,-5.81
-0.11,-0.1,0.93,-1.75,-11.13,-6.79
-0.12,-0.13,0.95,-3.92,-9.1,-7.28
-0.13,-0.16,0.96,-3.43,-7,-7.56
-0.14,-0.2,0.96,-1.89,-4.48,-7.28
-0.15,-0.21,0.96,0,-2.73,-6.44
-0.16,-0.21,0.97,1.19,-1.33,-5.11
-0.16,-0.18,1.01,0.63,0.28,-3.43
-0.17,-0.18,1.05,0.42,2.94,-1.61
-0.17,-0.17,1.09,0.56,5.25,0.28
-0.17,-0.16,1.11,0.7,6.93,2.59
-0.17,-0.16,1.11,2.31,8.12,3.64
-0.16,-0.14,1.12,3.92,8.12,4.69
-0.15,-0.11,1.14,5.11,7.91,4.9
-0.15,-0.09,1.16,5.74,7.84,5.04
-0.15,-0.07,1.17,6.09,7.21,4.62
-0.13,-0.06,1.16,5.32,6.3,3.64
-0.12,-0.07,1.17,4.9,3.92,2.87
-0.12,-0.08,1.19,5.04,1.68,1.82
-0.13,-0.08,1.23,5.88,0.35,1.33
-0.12,-0.1,1.26,6.37,-1.19,1.26
-0.13,-0.12,1.29,9.94,-1.61,1.61
-0.14,-0.1,1.37,14.42,-1.4,2.03
-0.15,-0.04,1.42,17.57,1.26,2.87
-0.17,0,1.41,16.59,5.81,3.85
-0.19,0.02,1.33,16.66,7.56,4.76
-0.19,0.03,1.22,14.56,7.7,6.02
-0.17,-0.01,1.11,10.99,5.25,7.14
-0.13,-0.06,0.99,8.47,0.42,7.77
-0.12,-0.1,0.89,9.8,-7.77,8.75
-0.09,-0.1,0.9,7.35,-14.7,10.15
-0.06,-0.1,0.92,1.54,-21.91,11.76
-0.07,-0.1,0.96,-4.62,-27.09,12.95
-0.05,-0.07,1.04,-10.57,-29.05,14
-0.04,-0.05,1.11,-14.42,-28.07,14.7
-0.03,-0.03,1.15,-15.96,-25.27,13.86
-0.03,-0.02,1.16,-14.7,-20.65,12.67
-0.03,0.01,1.15,-10.92,-15.96,10.43
-0.03,0.04,1.14,-9.24,-11.06,7.84
-0.02,0.06,1.09,-9.17,-5.39,4.2
-0.03,0.05,1.02,-9.8,-0.07,1.4
-0.03,0.04,0.96,-10.64,2.73,-2.03
-0.04,0.01,0.91,-11.55,4.55,-4.06
-0.05,-0.02,0.75,-12.04,5.04,-5.32
-0.06,-0.06,0.85,-11.83,4.9,-5.46
-0.07,-0.08,0.83,-11.97,4.55,-4.48
-0.08,-0.08,0.82,-13.3,3.85,-3.01
-0.09,-0.08,0.81,-15.19,2.8,-1.19
-0.09,-0.08,0.81,-17.71,2.38,1.12
-0.09,-0.09,0.81,-19.25,1.19,2.59
-0.08,-0.09,0.83,-19.04,0.35,3.36
-0.07,-0.08,0.84,-18.62,-0.49,3.92
-0.06,-0.08,0.84,-16.59,-1.47,3.22
-0.05,-0.07,0.87,-14.98,-2.45,2.45
-0.05,-0.07,0.89,-13.65,-2.66,1.47
-0.05,-0.07,0.92,-12.04,-3.43,0
-0.06,-0.07,0.94,-10.57,-2.87,-0.63
-0.06,-0.08,0.95,-8.33,-2.94,-1.05
-0.06,-0.1,0.95,-5.74,-3.43,-0.91
-0.06,-0.13,0.95,-4.13,-4.76,-1.05
-0.06,-0.14,0.96,-1.26,-6.58,-0.42
-0.06,-0.15,0.98,0.28,-8.61,0.28
-0.06,-0.16,1.01,2.73,-10.71,1.05
-0.07,-0.14,1.06,5.53,-12.25,0.91
-0.08,-0.1,1.1,8.12,-12.53,0.28
-0.08,-0.07,1.13,9.87,-11.83,-1.19
-0.08,-0.04,1.15,11.13,-11.27,-3.43
-0.07,-0.02,1.16,12.88,-10.64,-6.86
-0.08,-0.02,1.16,14.42,-10.43,-9.73
-0.08,-0.04,1.16,16.03,-10.29,-12.11
-0.07,-0.08,1.16,16.94,-10.85,-13.72
-0.06,-0.14,1.16,16.8,-11.27,-14.35
-0.08,-0.16,1.17,17.29,-11.55,-13.86
-0.1,-0.18,1.21,16.03,-10.71,-12.67
-0.11,-0.18,1.22,14.49,-9.87,-10.85
-0.08,-0.18,1.24,15.26,-8.54,-9.87
-0.08,-0.15,1.28,17.92,-5.81,-10.15
-0.1,-0.1,1.33,21.98,-2.38,-11.27
-0.05,-0.22,1.24,-6.09,-4.06,7.91
-0.06,-0.2,1.38,2.1,1.54,7.14
-0.07,-0.17,1.44,8.82,9.1,6.37
-0.11,-0.13,1.46,15.26,15.33,5.95
-0.15,-0.08,1.44,17.5,21.98,6.44
-0.18,-0.08,1.33,17.01,27.65,7.77
-0.18,-0.11,1.19,17.85,29.89,8.96
-0.15,-0.15,1.04,16.94,28.98,10.57
-0.13,-0.23,0.88,19.39,21.63,12.46
-0.11,-0.22,0.82,23.24,13.93,14
-0.09,-0.18,0.82,18.41,5.74,15.75
-0.08,-0.14,0.82,10.08,-3.71,17.36
-0.07,-0.13,0.88,-0.07,-10.08,18.27
-0.07,-0.14,0.99,-6.16,-13.51,18.76
-0.06,-0.15,1.07,-9.1,-14.77,19.18
-0.07,-0.14,1.12,-4.06,-14.07,18.9
-0.07,-0.09,1.17,2.38,-11.06,17.43
-0.07,-0.03,1.2,4.97,-7.21,15.75
-0.06,0.02,1.2,4.13,-2.38,12.88
-0.06,0.03,1.16,0.98,3.99,10.29
-0.06,0,1.1,-0.7,7.42,7.63
-0.06,-0.05,1.01,1.4,9.59,4.97
-0.07,-0.08,0.95,4.9,10.15,3.43
-0.07,-0.08,0.9,8.47,9.45,2.03
-0.08,-0.07,0.87,7.7,7.98,1.33
-0.09,-0.05,0.85,4.06,6.37,1.54
-0.1,-0.06,0.85,-2.45,4.2,2.03
-0.1,-0.08,0.85,-7.35,2.31,2.8
-0.1,-0.1,0.84,-8.61,0.7,3.22
-0.09,-0.1,0.84,-7.63,-1.54,3.29
-0.08,-0.09,0.84,-7.21,-3.43,2.87
-0.06,-0.07,0.84,-8.75,-4.97,1.68
-0.05,-0.06,0.87,-10.22,-6.51,0.42
-0.04,-0.07,0.9,-12.74,-6.65,-0.91
-0.04,-0.08,0.93,-13.3,-6.3,-2.59
-0.04,-0.11,0.95,-10.85,-5.53,-3.71
-0.04,-0.13,0.97,-8.89,-3.43,-4.83
-0.05,-0.14,0.98,-5.46,-2.59,-5.04
-0.06,-0.15,0.99,-3.5,-0.84,-4.76
-0.05,-0.15,0.98,-3.36,0.56,-4.55
-0.06,-0.16,0.98,-2.87,0.84,-3.78
-0.06,-0.17,0.99,-2.38,0.7,-3.22
-0.06,-0.18,1.02,0.42,0.14,-2.87
-0.07,-0.16,1.05,3.85,-0.21,-2.45
-0.09,-0.15,1.08,7.49,-0.63,-2.31
-0.1,-0.13,1.11,9.03,-0.77,-1.96
-0.11,-0.1,1.13,8.19,-0.56,-1.75
-0.12,-0.11,1.12,6.58,-0.77,-1.82
-0.11,-0.12,1.11,6.58,-2.03,-2.31
-0.11,-0.13,1.12,6.58,-3.5,-2.59
-0.11,-0.15,1.11,8.33,-5.25,-2.87
-0.1,-0.15,1.12,8.96,-7.77,-2.66
-0.08,-0.15,1.13,7.14,-9.52,-2.73
-0.09,-0.15,1.16,4.34,-10.78,-2.73
-0.1,-0.14,1.2,3.92,-10.99,-2.87
-0.11,-0.12,1.28,4.41,-9.17,-2.87
-0.11,-0.13,1.28,3.78,-5.81,-3.01
-0.13,-0.14,1.26,8.05,-3.85,-3.43
-0.14,-0.12,1.28,9.17,-1.4,-3.5
-0.15,-0.13,1.25,8.96,1.68,-3.15
-0.15,-0.1,1.19,7.98,3.92,-3.08
-0.14,-0.09,1.11,4.55,5.46,-2.73
-0.14,-0.13,1.02,4.06,3.29,-2.73
-0.13,-0.12,0.96,4.13,0.63,-2.87
-0.12,-0.11,0.93,1.89,-1.96,-3.08
-0.12,-0.12,0.91,0.28,-6.93,-3.08
-0.11,-0.12,0.91,-4.55,-9.8,-3.15
-0.1,-0.13,0.92,-8.05,-12.6,-2.59
-0.1,-0.14,0.96,-11.34,-14.77,-1.82
-0.1,-0.16,1.02,-12.95,-14.42,-0.77
-0.11,-0.16,1.06,-11.48,-12.11,0.14
-0.11,-0.14,1.11,-8.54,-9.1,1.33
-0.11,-0.12,1.15,-4.69,-3.36,2.59
-0.11,-0.1,1.15,-3.01,1.75,3.29
-0.11,-0.09,1.11,-2.24,7.07,4.13
-0.1,-0.1,1.06,-1.12,10.15,4.76
-0.09,-0.11,1,-1.54,12.04,5.32
-0.09,-0.14,0.92,-0.7,11.62,5.88
-0.09,-0.16,0.88,0.63,9.59,7.07
-0.09,-0.16,0.85,1.33,6.58,7.98
-0.1,-0.15,0.83,0.7,3.22,9.73
-0.1,-0.14,0.84,-1.4,-0.7,10.92
-0.1,-0.13,0.85,-4.06,-2.94,12.67
-0.1,-0.12,0.85,-6.44,-5.6,13.93
-0.1,-0.13,0.86,-8.61,-7.49,15.12
-0.1,-0.15,0.86,-9.17,-9.45,15.82
-0.08,-0.15,0.88,-7.84,-10.29,16.8
-0.08,-0.15,0.9,-7.07,-10.78,17.5
-0.09,-0.16,0.91,-5.88,-11.69,18.55
-0.09,-0.15,0.93,-5.95,-11.2,19.39
-0.09,-0.15,0.95,-6.44,-10.85,20.72
-0.1,-0.16,0.96,-5.67,-10.08,22.19
-0.11,-0.16,0.97,-4.97,-8.96,23.59
-0.12,-0.17,0.97,-3.08,-7.7,26.04
-0.13,-0.17,0.97,-1.12,-6.79,28.28
-0.14,-0.17,0.95,-0.56,-6.86,30.59
-0.13,-0.18,0.93,-1.26,-7.07,33.74
-0.11,-0.19,0.92,-2.1,-8.68,36.33
-0.1,-0.21,0.93,-3.08,-10.57,38.43
-0.09,-0.21,0.97,-5.04,-11.62,40.81
-0.09,-0.22,0.99,-6.58,-12.25,42.28
-0.09,-0.19,1.03,-6.65,-12.18,43.33
-0.09,-0.16,1.07,-5.53,-11.48,43.19
-0.1,-0.11,1.11,-5.11,-9.8,42
-0.1,-0.05,1.13,-6.16,-6.44,40.39
-0.1,-0.05,1.12,-7.14,-3.92,37.8
-0.09,-0.07,1.1,-6.65,-2.38,34.93
-0.1,-0.1,1.1,-6.3,-1.75,32.13
-0.1,-0.13,1.11,-4.13,-0.7,30.31
-0.1,-0.14,1.13,-2.38,-0.14,28.07
-0.11,-0.15,1.14,-1.12,1.19,27.09
-0.11,-0.15,1.17,1.12,2.52,26.11
-0.11,-0.13,1.2,3.43,5.11,25.55
-0.13,-0.11,1.22,5.53,7.7,25.41
-0.13,-0.12,1.19,5.95,10.92,25.76
-0.13,-0.15,1.15,7.7,11.9,26.81
-0.11,-0.2,1.09,8.68,12.11,28.28
-0.1,-0.22,1.06,12.53,10.5,29.47
-0.09,-0.2,1.08,14.7,8.33,30.87
-0.07,-0.18,1.09,14.91,7.14,31.78
-0.06,-0.15,1.11,16.03,4.76,31.85
-0.05,-0.12,1.13,15.47,3.85,31.29
-0.05,-0.09,1.15,14.84,3.57,30.24
-0.06,-0.08,1.16,17.85,3.5,29.19
-0.09,-0.06,1.15,19.53,3.71,28.56
-0.11,-0.05,1.12,20.79,4.34,28.28
-0.13,-0.05,1.08,20.65,4.27,28.63
-0.14,-0.05,1.04,17.99,4.06,29.61
-0.14,-0.06,0.97,15.68,3.01,31.08
-0.15,-0.08,0.92,12.53,1.12,33.53
-0.14,-0.1,0.88,9.03,-1.26,35.63
-0.14,-0.11,0.87,4.69,-4.27,38.64
-0.13,-0.11,0.86,0.7,-6.23,40.88
-0.11,-0.09,0.87,-3.92,-7.84,43.33
-0.09,-0.09,0.89,-8.89,-8.82,44.31
-0.07,-0.08,0.9,-14.14,-9.1,44.59
-0.05,-0.08,0.91,-17.22,-9.1,43.89
-0.04,-0.08,0.92,-20.58,-8.61,42.21
-0.02,-0.08,0.92,-21.98,-8.12,40.11
-0.02,-0.08,0.94,-22.54,-7.14,37.87
-0.01,-0.08,0.99,-22.47,-6.3,34.44
0,-0.08,1.02,-21.7,-4.34,32.13
0.01,-0.08,1.04,-21.77,-2.52,29.54
0,-0.09,1.03,-20.93,-0.98,26.74
0.01,-0.11,1.02,-19.74,-0.42,24.78
0,-0.12,1.01,-18.83,0.49,23.03
-0.02,-0.14,0.99,-17.57,0.63,21.91
-0.03,-0.14,0.99,-15.26,0.14,21.21
-0.04,-0.13,0.99,-14.7,0.42,20.72
-0.06,-0.13,1.01,-13.72,-0.63,20.79
-0.07,-0.12,1.04,-13.23,-0.42,21.28
-0.09,-0.12,1.05,-13.09,-0.21,21.91
-0.1,-0.11,1.05,-11.27,-0.42,23.24
-0.12,-0.11,1.06,-10.15,-0.21,24.01
-0.12,-0.11,1.06,-7.98,-0.49,25.48
-0.12,-0.11,1.06,-6.44,-0.77,26.74
-0.1,-0.12,1.07,-5.46,-1.33,27.72
-0.09,-0.12,1.1,-5.46,-2.1,28.56
-0.08,-0.13,1.12,-5.81,-3.08,29.26
-0.07,-0.14,1.13,-6.44,-3.85,29.96
-0.07,-0.16,1.13,-6.58,-4.62,30.17
-0.07,-0.16,1.14,-4.69,-5.32,30.03
-0.09,-0.16,1.17,-0.91,-5.25,29.75
-0.12,-0.11,1.23,8.47,-2.66,29.33
-0.13,-0.04,1.29,11.55,1.96,28.77
-0.15,0.02,1.24,12.11,6.86,27.58
-0.15,0.04,1.18,11.13,8.68,26.74
-0.14,-0.01,1.08,5.6,10.01,26.25
-0.14,-0.09,0.96,4.83,6.37,26.67
-0.14,-0.15,0.91,7.77,1.26,28.07
-0.14,-0.16,0.87,10.43,-5.6,29.54
-0.13,-0.14,0.87,10.57,-11.55,32.48
-0.12,-0.11,0.89,5.88,-18.55,34.3
-0.11,-0.07,0.93,-2.45,-23.17,36.33
-0.12,-0.06,0.99,-8.54,-27.37,37.38
-0.12,-0.07,1.06,-11.62,-28.49,38.64
-0.13,-0.08,1.09,-8.54,-28.21,39.13
-0.13,-0.06,1.12,-1.61,-26.88,39.48
-0.12,-0.02,1.13,1.54,-23.87,39.76
-0.11,0,1.12,0.77,-21.14,40.11
-0.1,-0.01,1.09,-1.82,-18.13,40.6
-0.09,-0.04,1.06,-5.04,-16.24,41.09
-0.09,-0.09,1.02,-5.95,-14.63,42.35
-0.09,-0.13,0.98,-3.29,-14.49,43.82
-0.09,-0.14,0.94,-2.03,-14.84,46.34
-0.1,-0.13,0.91,-3.99,-15.68,48.58
-0.1,-0.12,0.9,-8.05,-16.73,51.38
-0.1,-0.11,0.9,-15.19,-17.43,53.48
-0.09,-0.12,0.92,-18.76,-17.92,55.09
-0.08,-0.13,0.94,-19.95,-17.57,56.28
-0.06,-0.14,0.96,-19.53,-16.73,56.7
-0.06,-0.11,0.98,-17.99,-15.47,56.42
-0.06,-0.08,1.01,-19.25,-13.86,55.93
-0.06,-0.07,1.03,-20.58,-11.76,55.3
-0.07,-0.07,1.04,-21.77,-8.96,55.02
-0.08,-0.08,1.04,-22.26,-6.09,55.16
-0.1,-0.1,1.01,-20.93,-4.06,55.79
-0.11,-0.12,1,-19.74,-2.31,57.05
-0.11,-0.13,0.97,-19.53,-1.68,59.08
-0.11,-0.14,0.94,-21,-1.96,60.83
-0.1,-0.14,0.92,-24.36,-3.08,62.93
-0.08,-0.16,0.9,-29.33,-5.18,64.4
-0.07,-0.19,0.91,-31.36,-8.68,66.15
-0.05,-0.19,0.93,-33.46,-10.99,67.34
-0.05,-0.2,0.95,-34.86,-13.51,68.67
-0.06,-0.19,1.12,-35,-14.63,69.72
-0.07,-0.17,1.03,-35.7,-14.7,70.77
-0.08,-0.14,1.06,-36.61,-13.72,71.19
-0.07,-0.13,1.12,-36.33,-12.25,71.12
-0.06,-0.13,1.15,-33.32,-9.17,70.63
-0.07,-0.14,1.19,-28.42,-7.07,69.72
-0.07,-0.12,1.21,-20.58,-3.57,68.81
-0.06,-0.11,1.21,-18.06,-0.91,67.69
-0.06,-0.14,1.17,-12.53,-0.28,67.06
-0.05,-0.14,1.19,-10.01,-0.07,66.57
-0.08,-0.15,1.17,-7.63,0.63,66.92
-0.11,-0.16,1.16,-2.03,0.21,67.76
-0.12,-0.14,1.14,1.68,0,69.09
-0.12,-0.13,1.09,4.27,-0.7,70.42
-0.11,-0.14,1.02,4.62,-3.5,72.1
-0.08,-0.15,0.98,3.71,-8.68,73.64
-0.08,-0.16,0.96,2.94,-14.49,75.53
-0.07,-0.16,0.98,2.73,-18.48,76.86
-0.06,-0.16,0.99,2.45,-22.33,78.33
-0.05,-0.15,1,3.78,-25.2,78.96
-0.05,-0.12,1.05,4.76,-26.6,79.31
-0.05,-0.08,1.09,4.69,-26.81,79.31
-0.05,-0.05,1.11,4.83,-25.76,78.96
-0.06,-0.04,1.11,3.85,-23.38,78.26
-0.07,-0.05,1.06,5.04,-22.05,77.84
-0.07,-0.07,1.03,6.09,-21.14,77.56
-0.08,-0.08,1,8.12,-20.02,77.84
-0.08,-0.08,0.98,8.89,-19.46,78.33
-0.07,-0.07,0.96,7.56,-18.76,78.96
-0.06,-0.07,0.93,5.25,-18.97,79.31
-0.05,-0.07,0.93,2.17,-19.53,79.38
-0.05,-0.07,0.93,-0.7,-19.67,79.1
-0.05,-0.07,0.92,-3.08,-19.6,78.89
-0.04,-0.08,0.91,-4.97,-19.88,78.12
-0.03,-0.08,0.9,-6.51,-20.16,76.79
-0.02,-0.07,0.92,-8.54,-20.51,74.9
0,-0.06,0.94,-10.57,-19.67,72.94
0.01,-0.06,0.96,-12.6,-19.04,70.77
0.02,-0.06,0.99,-13.86,-17.36,67.55
0.02,-0.06,1.01,-15.19,-15.54,65.24
0.01,-0.08,1.03,-14.98,-13.02,62.16
0.01,-0.08,1.04,-14.21,-10.57,59.99
-0.01,-0.09,1.05,-13.58,-7.49,57.82
-0.02,-0.09,1.07,-12.81,-4.69,56.42
-0.03,-0.09,1.07,-13.79,-1.26,55.58
-0.04,-0.11,1.05,-14.42,0.63,54.88
-0.04,-0.12,1.04,-15.54,1.54,54.6
-0.04,-0.15,1.04,-16.45,1.68,54.25
-0.06,-0.16,1.06,-15.4,1.12,54.39
-0.07,-0.14,1.09,-14.98,1.61,54.67
-0.08,-0.13,1.09,-15.12,2.24,54.39
-0.08,-0.11,1.09,-15.54,2.17,53.62
-0.07,-0.09,1.1,-15.54,1.33,52.43
-0.07,-0.09,1.11,-16.1,0.42,50.82
-0.07,-0.1,1.1,-16.66,-1.26,48.86
-0.07,-0.11,1.1,-17.08,-3.57,47.39
-0.05,-0.14,1.09,-17.08,-7,45.85
-0.06,-0.16,1.11,-14.91,-9.52,45.01
-0.08,-0.17,1.17,-12.25,-10.64,45.22
-0.09,-0.16,1.2,-8.4,-10.29,45.99
-0.11,-0.14,1.23,-5.11,-9.52,47.46
-0.13,-0.1,1.26,-3.08,-6.65,49.07
-0.15,-0.08,1.24,-2.87,-3.5,51.45
-0.15,-0.08,1.18,-2.45,-1.33,53.2
-0.13,-0.1,1.06,-4.55,-1.75,55.09
-0.11,-0.14,0.97,-4.83,-6.02,56.91
-0.08,-0.15,0.94,-2.59,-11.2,57.75
-0.06,-0.13,0.94,-3.43,-16.59,58.8
-0.05,-0.11,0.94,-6.3,-21.14,59.22
-0.05,-0.07,0.97,-10.22,-25.9,59.5
-0.06,-0.06,1.03,-15.75,-28.35,59.64
-0.06,-0.07,1.07,-19.11,-28.91,59.78
-0.06,-0.09,1.08,-18.27,-28.35,59.64
-0.06,-0.09,1.11,-15.4,-27.51,59.5
-0.06,-0.09,1.14,-10.64,-24.5,59.71
-0.06,-0.06,1.19,-7.28,-21.14,59.92
-0.05,-0.04,1.2,-6.79,-14.84,60.34
-0.06,-0.05,1.15,-7.21,-10.43,61.11
-0.04,-0.08,1.11,-6.86,-6.51,62.23
-0.04,-0.11,1.04,-7.49,-4.06,63.28
-0.04,-0.15,0.98,-4.9,-3.99,65.31
-0.04,-0.15,0.95,-2.24,-4.48,66.71
-0.05,-0.14,0.92,-2.87,-5.11,68.81
-0.06,-0.12,0.91,-4.2,-6.3,70.56
-0.07,-0.1,0.92,-7.28,-6.51,72.17
-0.08,-0.1,0.92,-11.06,-6.37,73.29
-0.08,-0.09,0.91,-13.09,-6.58,73.57
-0.07,-0.09,0.9,-16.1,-6.86,73.36
-0.06,-0.1,0.89,-16.94,-7.84,71.96
-0.05,-0.1,0.9,-16.94,-9.73,70.21
-0.05,-0.08,0.93,-17.99,-10.29,68.32
-0.05,-0.07,0.95,-18.48,-10.78,66.5
-0.06,-0.06,0.99,-19.53,-10.78,64.4
-0.07,-0.06,1.01,-21.98,-9.94,63.35
-0.09,-0.09,1.01,-21.98,-9.24,62.65
-0.1,-0.11,1.01,-20.58,-9.03,62.93
-0.11,-0.12,1.01,-19.95,-8.89,64.12
-0.11,-0.13,0.99,-21.28,-9.52,65.38
-0.11,-0.14,0.96,-23.24,-11.27,67.34
-0.1,-0.15,0.96,-25.13,-13.79,68.67
-0.08,-0.16,0.97,-26.6,-15.96,69.79
-0.07,-0.15,0.99,-27.37,-17.78,70.49
-0.07,-0.15,1.01,-26.81,-19.88,70.91
-0.06,-0.13,1.06,-26.39,-20.86,70.84
-0.06,-0.11,1.1,-26.95,-20.93,70.49
-0.07,-0.1,1.12,-28.56,-20.37,70.07
-0.07,-0.12,1.12,-29.47,-19.18,70.07
-0.07,-0.15,1.11,-28.77,-18.48,70.84
-0.09,-0.18,1.11,-25.9,-17.57,72.1
-0.1,-0.17,1.15,-23.31,-16.1,73.29
-0.11,-0.16,1.15,-21.77,-14.56,75.25
-0.1,-0.15,1.14,-21.28,-14,76.72
-0.09,-0.14,1.15,-22.19,-13.86,78.19
-0.12,-0.13,1.17,-20.37,-14.49,79.66
-0.13,-0.11,1.18,-17.29,-14,81.06
-0.11,-0.12,1.11,-16.1,-13.93,82.81
-0.1,-0.13,1.06,-13.58,-17.15,83.79
-0.06,-0.13,1.03,-13.44,-20.02,84.7
-0.04,-0.13,1.04,-13.79,-24.15,85.47
-0.03,-0.13,1.06,-13.86,-26.81,85.89
-0.03,-0.13,1.08,-12.95,-29.61,86.24
-0.03,-0.12,1.11,-9.94,-30.38,86.17
-0.03,-0.1,1.14,-7.28,-29.96,86.1
-0.03,-0.08,1.15,-4.62,-28.49,85.75
-0.03,-0.07,1.15,-2.66,-26.39,84.84
-0.04,-0.05,1.14,0.07,-23.94,83.93
-0.05,-0.04,1.12,1.33,-20.65,82.67
-0.06,-0.05,1.07,2.59,-18.9,81.69
-0.06,-0.05,1.02,3.78,-17.85,80.78
-0.07,-0.06,1,5.39,-17.08,79.73
-0.07,-0.06,0.96,5.39,-16.45,79.1
-0.08,-0.04,0.92,3.85,-16.52,78.75
-0.09,-0.04,0.89,1.4,-17.36,78.68
-0.09,-0.05,0.87,-2.17,-18.2,78.61
-0.08,-0.07,0.85,-5.88,-19.6,78.68
-0.07,-0.09,0.85,-7.98,-21.35,78.75
-0.06,-0.1,0.87,-9.59,-22.96,78.82
-0.05,-0.1,0.88,-11.97,-23.66,79.03
-0.04,-0.09,0.89,-14.35,-24.78,78.75
-0.02,-0.08,0.92,-17.36,-24.78,78.05
-0.02,-0.09,0.94,-19.25,-24.64,77.07
-0.02,-0.09,0.97,-19.32,-23.66,75.6
-0.01,-0.08,0.99,-18.9,-21.63,73.5
-0.01,-0.08,1.01,-17.64,-19.74,70.98
-0.01,-0.07,1.01,-16.38,-17.85,67.55
-0.01,-0.06,1.02,-15.89,-14.98,64.96
-0.02,-0.07,1.02,-15.33,-13.09,61.46
-0.03,-0.07,1.04,-14.35,-10.57,58.94
-0.03,-0.11,1.03,-14.21,-9.52,56.07
-0.04,-0.13,1.04,-12.46,-9.1,54.74
-0.04,-0.14,1.04,-12.39,-8.47,53.48
-0.06,-0.14,1.04,-11.34,-9.24,52.99
-0.08,-0.12,1.05,-10.99,-9.59,52.22
-0.09,-0.12,1.05,-11.48,-9.87,52.22
-0.1,-0.1,1.04,-11.62,-11.27,51.24
-0.09,-0.09,1.05,-11.97,-12.46,49.98
-0.08,-0.09,1.06,-11.55,-14.14,47.95
-0.06,-0.09,1.09,-11.2,-17.01,44.73
-0.05,-0.11,1.12,-10.71,-18.97,41.72
-0.09,-0.11,1.18,-7.77,-20.51,38.57
-0.11,-0.08,1.28,-4.69,-19.67,36.26
-0.13,-0.08,1.32,-2.52,-15.47,35.14
-0.15,-0.08,1.31,2.66,-12.81,34.37
-0.17,-0.06,1.28,6.02,-9.1,34.02
-0.2,-0.06,1.22,7.63,-7.14,34.23
-0.19,-0.08,1.13,8.54,-6.37,35
-0.18,-0.1,1.05,6.51,-7.07,36.54
-0.17,-0.15,0.93,5.39,-9.73,38.36
-0.14,-0.18,0.9,6.65,-15.82,40.11
-0.13,-0.18,0.92,3.78,-19.46,42
-0.12,-0.15,0.93,0.91,-23.03,44.03
-0.1,-0.13,0.97,-2.1,-25.06,44.73
-0.09,-0.1,1.01,-4.27,-25.62,44.87
-0.08,-0.1,1.07,-5.11,-24.71,44.45
-0.07,-0.08,1.12,-3.01,-22.61,43.61
-0.08,-0.07,1.15,-1.05,-17.99,42.98
-0.08,-0.07,1.16,1.05,-13.65,42.35
-0.08,-0.07,1.16,3.57,-8.19,42.14
-0.09,-0.08,1.12,4.62,-4.2,42.21
-0.08,-0.09,1.09,5.53,-0.63,42.49
-0.08,-0.11,1.04,6.16,1.47,43.19
-0.07,-0.12,0.99,6.44,2.24,43.68
-0.06,-0.12,0.94,6.3,1.82,44.31
-0.06,-0.12,0.92,5.74,0.35,45.15
-0.06,-0.12,0.89,3.08,-1.05,45.99
-0.07,-0.11,0.89,0.91,-3.01,46.97
-0.06,-0.11,0.89,-2.03,-4.2,47.46
-0.06,-0.11,0.9,-3.43,-5.25,47.67
-0.06,-0.09,0.92,-5.39,-5.88,47.74
-0.06,-0.09,0.94,-6.44,-5.74,47.39
-0.07,-0.08,0.96,-6.23,-5.04,46.83
-0.07,-0.06,0.98,-6.86,-3.92,45.64
-0.07,-0.05,0.98,-7.7,-2.87,44.52
-0.08,-0.05,0.98,-8.68,-2.52,42.63
-0.09,-0.06,0.98,-9.87,-2.1,41.65
-0.1,-0.06,0.99,-9.17,-2.17,40.53
-0.11,-0.07,1,-8.75,-1.75,40.04
-0.12,-0.07,0.98,-8.12,-2.1,39.48
-0.13,-0.08,0.98,-8.4,-2.66,39.69
-0.13,-0.09,0.96,-10.08,-3.43,39.83
-0.13,-0.1,0.95,-10.99,-5.39,40.46
-0.12,-0.11,0.95,-13.3,-6.65,40.46
-0.12,-0.12,0.94,-13.93,-9.8,40.53
-0.11,-0.12,0.97,-14.98,-12.11,40.81
-0.1,-0.13,0.99,-16.03,-13.86,40.88
-0.1,-0.14,1.02,-15.4,-15.96,40.88
-0.1,-0.14,1.06,-15.33,-17.22,41.44
-0.11,-0.14,1.1,-14.07,-18.13,41.86
-0.13,-0.13,1.15,-12.46,-17.85,42.77
-0.15,-0.13,1.18,-12.67,-16.24,43.82
-0.16,-0.15,1.16,-11.41,-15.75,45.36
-0.15,-0.16,1.16,-10.5,-15.68,46.41
